timestamp_ns,qw,qx,qy,qz,ax,ay,az
2734843000,0.999939,0.006042,0.011597,0.000000,-0.003906,0.003906,-0.027344
2744399000,0.999939,0.006042,0.011597,-0.000061,-0.003906,-0.031250,-0.027344
2762375000,0.999939,0.006042,0.011597,-0.000061,-0.003906,-0.031250,-0.027344
2774659000,0.999939,0.006042,0.011658,-0.000061,-0.003906,-0.031250,-0.019531
2787600000,0.999939,0.006042,0.011658,-0.000061,-0.003906,-0.031250,-0.019531
2795052000,0.999939,0.006042,0.011658,-0.000061,-0.003906,-0.023438,-0.058594
2810905000,0.999939,0.006042,0.011658,-0.000061,-0.003906,-0.023438,-0.019531
2825068000,0.999939,0.006104,0.011658,-0.000061,0.035156,-0.023438,0.019531
2838133000,0.999939,0.006104,0.011658,-0.000122,-0.003906,-0.023438,-0.050781
2844286000,0.999939,0.006104,0.011658,-0.000122,-0.003906,-0.023438,-0.011719
2855839000,0.999939,0.006104,0.011658,-0.000061,-0.003906,-0.023438,-0.050781
2874258000,0.999939,0.006104,0.011658,-0.000122,-0.003906,-0.023438,-0.011719
2891782000,0.999939,0.006104,0.011658,-0.000122,-0.003906,-0.023438,-0.011719
2904354000,0.999939,0.006104,0.011658,-0.000122,-0.003906,0.019531,-0.011719
2914619000,0.999939,0.006104,0.011658,-0.000122,-0.003906,-0.015625,-0.042969
2934508000,0.999939,0.006104,0.011658,-0.000122,-0.003906,0.000000,0.003906
2944111000,0.999939,0.006104,0.011658,-0.000122,-0.003906,0.035156,0.003906
2964065000,0.999939,0.006165,0.011658,-0.000122,-0.003906,0.000000,0.003906
2984254000,0.999939,0.006104,0.011658,-0.000122,-0.003906,0.000000,0.042969
3009207000,0.999939,0.006104,0.011658,-0.000122,-0.003906,0.000000,-0.035156
3023841000,0.999939,0.006165,0.011658,-0.000122,-0.003906,0.000000,0.003906
3044641000,0.999939,0.006165,0.011658,-0.000122,-0.003906,0.000000,0.003906
3067816000,0.999939,0.006165,0.011658,-0.000122,-0.003906,0.000000,0.003906
3084490000,0.999939,0.006104,0.011658,-0.000122,-0.003906,0.000000,0.003906
3103717000,0.999939,0.006104,0.011658,-0.000122,-0.003906,-0.007812,0.042969
3134058000,0.999939,0.006104,0.011658,-0.000061,0.035156,-0.007812,0.003906
3150317000,0.999939,0.006104,0.011658,-0.000061,-0.003906,-0.007812,0.042969
3163707000,0.999939,0.006104,0.011658,-0.000061,-0.003906,-0.007812,0.003906
3183569000,0.999939,0.006104,0.011658,-0.000061,-0.003906,0.000000,0.003906
3205780000,0.999939,0.006104,0.011719,-0.000061,-0.003906,0.000000,0.003906
3229933000,0.999939,0.006165,0.011719,-0.000061,-0.003906,0.000000,0.003906
3243436000,0.999939,0.006104,0.011719,-0.000061,-0.003906,0.000000,0.003906
3265343000,0.999939,0.006104,0.011658,-0.000061,-0.003906,0.000000,0.003906
3293330000,0.999939,0.006104,0.011658,-0.000061,-0.003906,0.035156,0.003906
3303094000,0.999939,0.006104,0.011719,-0.000061,-0.003906,0.035156,-0.035156
3329973000,0.999939,0.006042,0.011658,-0.000122,-0.003906,0.000000,0.003906
3343611000,0.999939,0.006042,0.011658,-0.000122,-0.003906,0.000000,0.003906
3362764000,0.999939,0.006042,0.011658,-0.000122,-0.042969,0.027344,0.003906
3383560000,0.999939,0.006042,0.011658,-0.000122,-0.003906,0.027344,0.003906
3402694000,0.999939,0.006042,0.011658,-0.000122,-0.003906,-0.007812,0.003906
3424606000,0.999939,0.006042,0.011658,-0.000122,-0.003906,-0.007812,0.003906
3443247000,0.999939,0.006042,0.011719,-0.000122,-0.003906,-0.007812,0.042969
3463008000,0.999939,0.006042,0.011719,-0.000122,-0.003906,-0.007812,0.003906
3482679000,0.999939,0.006042,0.011719,-0.000122,-0.003906,-0.007812,0.003906
3513037000,0.999939,0.006104,0.011719,-0.000122,-0.003906,-0.007812,0.003906
3522527000,0.999939,0.006104,0.011719,-0.000122,-0.042969,-0.007812,0.003906
3543008000,0.999939,0.006104,0.011719,-0.000122,-0.003906,-0.007812,0.042969
3563876000,0.999939,0.006104,0.011719,-0.000122,-0.003906,-0.007812,-0.035156
3588497000,0.999939,0.006104,0.011719,-0.000122,-0.003906,-0.007812,0.003906
3602080000,0.999939,0.006104,0.011719,-0.000122,-0.003906,-0.007812,0.003906
3622206000,0.999939,0.006042,0.011719,-0.000122,-0.003906,0.027344,-0.035156
3653041000,0.999939,0.006104,0.011719,-0.000122,-0.003906,-0.007812,0.003906
3662146000,0.999939,0.006104,0.011719,-0.000122,-0.003906,-0.007812,0.003906
3682456000,0.999939,0.006042,0.011719,-0.000122,-0.003906,0.027344,0.003906
3702253000,0.999939,0.006042,0.011719,-0.000122,-0.003906,-0.007812,0.042969
3722026000,0.999939,0.006042,0.011719,-0.000122,-0.003906,-0.007812,0.003906
3741945000,0.999939,0.006042,0.011719,-0.000122,-0.003906,-0.007812,0.042969
3771509000,0.999939,0.006042,0.011719,-0.000122,-0.035156,-0.007812,0.003906
3782134000,0.999939,0.006042,0.011719,-0.000122,0.003906,-0.007812,0.003906
3801631000,0.999939,0.006042,0.011719,-0.000122,0.003906,-0.007812,0.042969
3827245000,0.999939,0.006042,0.011719,-0.000122,0.003906,-0.007812,0.003906
3841630000,0.999939,0.006042,0.011719,-0.000122,0.003906,0.027344,0.003906
3861914000,0.999939,0.006042,0.011719,-0.000122,0.003906,-0.007812,-0.035156
3888155000,0.999939,0.006042,0.011719,-0.000122,0.003906,-0.007812,0.003906
3903892000,0.999939,0.006042,0.011719,-0.000122,0.003906,0.027344,0.003906
3922051000,0.999939,0.006042,0.011719,-0.000122,0.003906,-0.007812,0.042969
3951531000,0.999939,0.006042,0.011719,-0.000122,0.003906,-0.007812,0.003906
3961895000,0.999939,0.006042,0.011719,-0.000122,0.003906,0.027344,0.003906
3983796000,0.999939,0.006042,0.011719,-0.000122,0.003906,-0.007812,0.042969
4011678000,0.999939,0.006042,0.011719,-0.000122,-0.003906,-0.007812,-0.003906
4021510000,0.999939,0.006042,0.011719,-0.000122,-0.003906,-0.007812,-0.003906
4041372000,0.999939,0.006042,0.011719,-0.000122,-0.003906,0.027344,-0.003906
4062110000,0.999939,0.006042,0.011719,-0.000122,-0.003906,-0.007812,-0.003906
4081077000,0.999939,0.006042,0.011719,-0.000122,-0.003906,-0.015625,-0.003906
4100881000,0.999939,0.006042,0.011719,-0.000122,-0.003906,0.019531,-0.003906
4126798000,0.999939,0.006042,0.011719,-0.000122,-0.003906,0.019531,-0.003906
4140659000,0.999939,0.006042,0.011719,-0.000122,-0.003906,-0.015625,0.035156
4167676000,0.999939,0.006042,0.011719,-0.000122,-0.003906,-0.015625,-0.003906
4180504000,0.999939,0.006042,0.011719,-0.000122,-0.003906,-0.015625,-0.003906
4201034000,0.999939,0.006042,0.011719,-0.000122,-0.003906,-0.015625,-0.003906
4230435000,0.999939,0.006042,0.011719,-0.000122,-0.003906,-0.007812,-0.003906
4240461000,0.999939,0.006042,0.011719,-0.000122,0.035156,-0.007812,-0.003906
4260420000,0.999939,0.006042,0.011719,-0.000122,-0.003906,-0.007812,-0.003906
4282388000,0.999939,0.006042,0.011719,-0.000122,-0.003906,-0.007812,-0.003906
4300250000,0.999939,0.006042,0.011719,-0.000122,-0.003906,-0.007812,-0.003906
4320378000,0.999939,0.006042,0.011719,-0.000122,-0.003906,0.027344,-0.003906
4340157000,0.999939,0.006042,0.011719,-0.000122,-0.003906,0.027344,-0.003906
4360734000,0.999939,0.006042,0.011719,-0.000122,-0.003906,-0.007812,-0.003906
4380385000,0.999939,0.006042,0.011719,-0.000122,-0.003906,-0.007812,-0.003906
4400224000,0.999939,0.006042,0.011719,-0.000122,-0.003906,-0.007812,0.035156
4421454000,0.999939,0.006042,0.011719,-0.000122,-0.003906,-0.007812,-0.003906
4441629000,0.999939,0.006042,0.011719,-0.000122,-0.003906,-0.007812,-0.003906
4465886000,0.999939,0.006042,0.011719,-0.000122,-0.003906,-0.007812,-0.003906
4479850000,0.999939,0.006042,0.011719,-0.000122,-0.003906,-0.007812,-0.003906
4500073000,0.999939,0.006042,0.011719,-0.000122,-0.003906,-0.007812,-0.042969
4526533000,0.999939,0.006042,0.011719,-0.000122,-0.003906,-0.007812,-0.003906
4539842000,0.999939,0.006042,0.011719,-0.000122,-0.003906,0.027344,-0.003906
4559578000,0.999939,0.006042,0.011719,-0.000122,-0.042969,-0.007812,-0.003906
4589582000,0.999939,0.006042,0.011719,-0.000122,-0.003906,0.027344,0.035156
4599287000,0.999939,0.006042,0.011719,-0.000122,-0.003906,0.027344,-0.003906
4620228000,0.999939,0.006042,0.011719,-0.000122,-0.003906,-0.007812,-0.003906
4649206000,0.999939,0.006042,0.011719,-0.000122,-0.003906,-0.007812,-0.003906
4659877000,0.999939,0.006042,0.011719,-0.000122,-0.042969,0.027344,0.035156
4680776000,0.999939,0.006042,0.011719,-0.000122,-0.003906,0.027344,-0.003906
4701511000,0.999939,0.006042,0.011719,-0.000122,-0.003906,-0.007812,0.035156
4729108000,0.999939,0.006042,0.011719,-0.000122,-0.003906,0.027344,-0.003906
4739522000,0.999939,0.006042,0.011719,-0.000122,-0.003906,0.027344,0.035156
4759285000,0.999939,0.006042,0.011719,-0.000122,-0.003906,0.027344,-0.003906
4780946000,0.999939,0.006042,0.011719,-0.000122,0.035156,-0.007812,-0.003906
4799166000,0.999939,0.006042,0.011719,-0.000122,-0.003906,0.027344,0.035156
4819263000,0.999939,0.006042,0.011719,-0.000122,-0.003906,-0.007812,0.035156
4839015000,0.999939,0.006042,0.011719,-0.000122,-0.003906,0.019531,0.035156
4859443000,0.999939,0.006042,0.011719,-0.000122,-0.003906,0.019531,0.035156
4884727000,0.999939,0.006042,0.011719,-0.000122,0.035156,-0.015625,-0.003906
4898952000,0.999939,0.006042,0.011719,-0.000122,-0.003906,0.019531,0.035156
4919472000,0.999939,0.006042,0.011719,-0.000122,-0.003906,-0.015625,-0.003906
4939751000,0.999939,0.006042,0.011719,-0.000122,-0.003906,-0.015625,-0.003906
4968958000,0.999939,0.006042,0.011719,-0.000122,-0.003906,-0.015625,-0.011719
4978525000,0.999939,0.006042,0.011719,-0.000122,-0.003906,0.019531,-0.011719
4999228000,0.999939,0.006042,0.011719,-0.000122,-0.003906,-0.015625,-0.011719
5019225000,0.999939,0.006042,0.011719,-0.000122,-0.003906,-0.015625,-0.003906
5048277000,0.999939,0.006042,0.011719,-0.000122,-0.003906,0.019531,-0.003906
5058426000,0.999939,0.006042,0.011719,-0.000122,-0.003906,-0.015625,-0.003906
5078992000,0.999939,0.006042,0.011719,-0.000122,-0.003906,0.019531,0.035156
5099049000,0.999939,0.006042,0.011719,-0.000122,-0.003906,0.019531,0.035156
5128630000,0.999939,0.006042,0.011719,-0.000122,-0.003906,-0.015625,-0.011719
5138378000,0.999939,0.006042,0.011719,-0.000122,-0.003906,0.019531,0.027344
5167756000,0.999939,0.006042,0.011719,-0.000122,-0.003906,-0.015625,-0.011719
5188588000,0.999939,0.006042,0.011719,-0.000122,-0.003906,-0.015625,0.027344
5206208000,0.999939,0.006042,0.011719,-0.000122,-0.003906,-0.015625,0.027344
5238353000,0.999939,0.006042,0.011719,-0.000122,-0.003906,-0.015625,-0.011719
5247858000,0.999939,0.006042,0.011719,-0.000122,-0.003906,-0.015625,0.027344
5257905000,0.999939,0.006042,0.011719,-0.000122,-0.003906,-0.015625,-0.011719
5290225000,0.999939,0.006042,0.011719,-0.000122,-0.003906,-0.015625,-0.011719
5298431000,0.999939,0.006042,0.011719,-0.000122,-0.003906,-0.015625,-0.011719
5327629000,0.999939,0.006042,0.011719,-0.000122,-0.003906,-0.015625,-0.011719
5337534000,0.999939,0.006042,0.011719,-0.000122,-0.003906,-0.015625,-0.011719
5358663000,0.999939,0.006042,0.011719,-0.000122,-0.003906,0.019531,0.027344
5378916000,0.999939,0.006042,0.011719,-0.000122,-0.003906,-0.007812,-0.011719
5407827000,0.999939,0.006042,0.011719,-0.000122,-0.003906,-0.007812,-0.011719
5427525000,0.999939,0.006042,0.011719,-0.000122,-0.042969,0.027344,0.027344
5437292000,0.999939,0.006042,0.011719,-0.000122,-0.003906,-0.007812,0.027344
5459051000,0.999939,0.006042,0.011719,-0.000122,-0.003906,-0.007812,0.027344
5487576000,0.999939,0.006042,0.011719,-0.000122,-0.003906,-0.007812,-0.011719
5504022000,0.999939,0.006042,0.011719,-0.000122,-0.003906,-0.007812,-0.011719
5531851000,0.999939,0.006042,0.011719,-0.000122,-0.003906,0.027344,-0.011719
5547222000,0.999939,0.006042,0.011719,-0.000122,-0.003906,-0.007812,-0.011719
5567551000,0.999939,0.006042,0.011719,-0.000122,-0.003906,-0.007812,-0.011719
5586842000,0.999939,0.006042,0.011719,-0.000122,-0.003906,0.027344,-0.011719
5597249000,0.999939,0.006042,0.011719,-0.000122,-0.003906,-0.007812,-0.011719
5630166000,0.999939,0.006042,0.011719,-0.000122,-0.042969,-0.007812,-0.011719
5646673000,0.999939,0.006042,0.011719,-0.000122,-0.003906,0.027344,0.027344
5663795000,0.999939,0.006042,0.011719,-0.000122,-0.003906,-0.007812,0.027344
5678178000,0.999939,0.006042,0.011719,-0.000122,-0.003906,-0.007812,0.027344
5707364000,0.999939,0.006042,0.011719,-0.000122,-0.003906,0.027344,-0.011719
5718392000,0.999939,0.006042,0.011719,-0.000122,-0.003906,-0.007812,-0.011719
5747387000,0.999939,0.006042,0.011719,-0.000122,-0.003906,-0.007812,-0.011719
5766509000,0.999939,0.006042,0.011719,-0.000122,-0.003906,0.027344,0.027344
5786546000,0.999939,0.006042,0.011719,-0.000122,-0.003906,-0.007812,-0.011719
5812736000,0.999939,0.006042,0.011719,-0.000122,0.035156,-0.007812,-0.011719
5828006000,0.999939,0.006042,0.011719,-0.000122,-0.003906,-0.007812,-0.011719
5846414000,0.999939,0.006042,0.011719,-0.000122,-0.003906,-0.007812,-0.003906
5866407000,0.999939,0.006042,0.011719,-0.000122,-0.003906,0.027344,-0.003906
5885993000,0.999939,0.006042,0.011719,-0.000122,-0.003906,0.027344,-0.042969
5906169000,0.999939,0.006042,0.011719,-0.000122,-0.003906,-0.007812,-0.003906
5931153000,0.999939,0.006042,0.011719,-0.000122,-0.003906,-0.007812,0.035156
5945930000,0.999939,0.006042,0.011719,-0.000122,-0.003906,0.019531,-0.003906
5965684000,0.999939,0.006042,0.011719,-0.000122,-0.003906,0.019531,-0.003906
5977256000,0.999939,0.006042,0.011719,-0.000122,-0.003906,-0.015625,-0.003906
6005870000,0.999939,0.006042,0.011719,-0.000122,-0.003906,-0.015625,0.035156
6025860000,0.999939,0.006042,0.011719,-0.000122,-0.003906,0.019531,-0.003906
6046466000,0.999939,0.006042,0.011719,-0.000122,-0.003906,-0.015625,0.035156
6071421000,0.999939,0.006042,0.011719,-0.000122,-0.003906,0.019531,0.035156
6086240000,0.999939,0.006042,0.011719,-0.000122,-0.003906,0.019531,-0.003906
6105435000,0.999939,0.006042,0.011719,-0.000122,-0.003906,-0.015625,0.035156
6126549000,0.999939,0.006042,0.011719,-0.000122,-0.003906,-0.015625,0.035156
6152336000,0.999939,0.006042,0.011719,-0.000122,-0.042969,-0.015625,-0.011719
6165687000,0.999939,0.006042,0.011719,-0.000122,-0.003906,-0.015625,-0.011719
6185158000,0.999939,0.006042,0.011719,-0.000122,-0.003906,-0.015625,-0.011719
6215519000,0.999939,0.006042,0.011719,-0.000122,-0.003906,0.019531,0.027344
6231002000,0.999939,0.006042,0.011719,-0.000122,-0.003906,0.019531,-0.011719
6245100000,0.999939,0.006042,0.011719,-0.000122,-0.003906,-0.015625,-0.011719
6270146000,0.999939,0.006042,0.011719,-0.000122,-0.003906,0.019531,0.027344
6284650000,0.999939,0.006042,0.011719,-0.000122,-0.003906,-0.015625,0.027344
6304800000,0.999939,0.006042,0.011719,-0.000122,-0.003906,0.019531,-0.011719
6325135000,0.999939,0.006042,0.011719,-0.000122,0.035156,0.019531,-0.050781
6348249000,0.999939,0.006042,0.011719,-0.000122,-0.042969,0.019531,-0.050781
6364570000,0.999939,0.006042,0.011719,-0.000122,-0.003906,0.019531,0.027344
6385011000,0.999939,0.006042,0.011719,-0.000122,-0.003906,0.019531,0.027344
6404843000,0.999939,0.006042,0.011719,-0.000122,-0.003906,0.019531,-0.011719
6426778000,0.999939,0.006042,0.011719,-0.000122,-0.042969,-0.015625,0.027344
6444517000,0.999939,0.006042,0.011719,-0.000122,-0.003906,-0.015625,-0.011719
6465143000,0.999939,0.006042,0.011719,-0.000122,-0.003906,-0.015625,-0.003906
6484607000,0.999939,0.006042,0.011719,-0.000122,-0.003906,-0.015625,0.035156
6509694000,0.999939,0.006042,0.011719,-0.000122,-0.003906,0.019531,0.035156
6524174000,0.999939,0.006042,0.011719,-0.000122,-0.003906,0.019531,-0.003906
6544531000,0.999939,0.006042,0.011719,-0.000122,-0.003906,0.019531,-0.003906
6564957000,0.999939,0.006042,0.011719,-0.000122,-0.003906,0.019531,0.035156
6587645000,0.999939,0.006042,0.011719,-0.000122,-0.003906,0.019531,-0.003906
6604542000,0.999939,0.006042,0.011719,-0.000122,-0.003906,0.011719,-0.003906
6623946000,0.999939,0.006042,0.011719,-0.000122,-0.003906,-0.023438,-0.003906
6645858000,0.999939,0.006042,0.011719,-0.000122,-0.003906,-0.023438,-0.003906
6674065000,0.999939,0.006042,0.011719,-0.000122,-0.003906,-0.023438,-0.003906
6684521000,0.999939,0.006042,0.011719,-0.000122,-0.003906,-0.015625,-0.003906
6704009000,0.999939,0.006042,0.011719,-0.000122,-0.003906,-0.015625,-0.003906
6724314000,0.999939,0.006042,0.011719,-0.000122,-0.003906,-0.015625,-0.003906
6750517000,0.999939,0.006042,0.011719,-0.000122,-0.003906,-0.015625,-0.003906
6764091000,0.999939,0.006042,0.011719,-0.000122,-0.003906,-0.015625,-0.003906
6783398000,0.999939,0.006042,0.011719,-0.000122,-0.003906,0.019531,-0.003906
6804471000,0.999939,0.006042,0.011719,-0.000122,-0.003906,-0.015625,0.035156
6829037000,0.999939,0.006042,0.011719,-0.000122,-0.003906,0.019531,-0.003906
6843632000,0.999939,0.006042,0.011719,-0.000122,-0.003906,0.019531,0.035156
6863316000,0.999939,0.006042,0.011719,-0.000122,-0.003906,0.019531,0.035156
6887649000,0.999939,0.006042,0.011719,-0.000122,-0.003906,-0.015625,-0.003906
6903111000,0.999939,0.006042,0.011719,-0.000122,-0.003906,-0.015625,-0.003906
6923078000,0.999939,0.006042,0.011719,-0.000122,-0.003906,0.019531,-0.003906
6944302000,0.999939,0.006042,0.011719,-0.000122,-0.003906,0.019531,-0.003906
6968107000,0.999939,0.006042,0.011719,-0.000122,-0.003906,0.019531,0.027344
6983260000,0.999939,0.006042,0.011719,-0.000122,-0.003906,0.011719,-0.011719
7002810000,0.999939,0.006042,0.011719,-0.000122,-0.003906,0.011719,0.027344
7023385000,0.999939,0.006042,0.011719,-0.000122,-0.003906,0.011719,-0.011719
7048167000,0.999939,0.006042,0.011719,-0.000122,-0.003906,-0.023438,-0.011719
7063449000,0.999939,0.006042,0.011719,-0.000122,-0.003906,0.011719,-0.011719
7082711000,0.999939,0.006042,0.011719,-0.000122,-0.003906,-0.023438,-0.011719
7103596000,0.999939,0.006042,0.011719,-0.000122,-0.042969,0.011719,-0.011719
7128297000,0.999939,0.006042,0.011719,-0.000122,-0.003906,-0.023438,-0.011719
7142800000,0.999939,0.006042,0.011719,-0.000122,-0.003906,0.011719,0.027344
7162422000,0.999939,0.006042,0.011719,-0.000122,-0.003906,0.011719,-0.011719
7182407000,0.999939,0.006042,0.011719,-0.000122,0.035156,-0.023438,0.027344
7212381000,0.999939,0.006042,0.011719,-0.000122,-0.003906,-0.023438,0.027344
7222806000,0.999939,0.006042,0.011719,-0.000122,-0.003906,0.011719,0.027344
7242921000,0.999939,0.006042,0.011719,-0.000122,-0.003906,0.011719,0.019531
7273118000,0.999939,0.006042,0.011719,-0.000122,-0.003906,0.011719,0.019531
7282225000,0.999939,0.006042,0.011719,-0.000122,-0.003906,0.011719,-0.019531
7302038000,0.999939,0.006042,0.011719,-0.000122,-0.003906,-0.023438,0.019531
7322522000,0.999939,0.006042,0.011719,-0.000122,-0.003906,0.011719,-0.019531
7351850000,0.999939,0.006042,0.011719,-0.000122,-0.003906,0.011719,0.019531
7368016000,0.999939,0.006042,0.011719,-0.000122,-0.003906,-0.023438,0.019531
7382187000,0.999939,0.006042,0.011719,-0.000122,-0.003906,0.011719,-0.019531
7402173000,0.999939,0.006042,0.011719,-0.000122,-0.003906,-0.023438,0.019531
7422727000,0.999939,0.006042,0.011719,-0.000122,-0.003906,0.011719,-0.019531
7446680000,0.999939,0.006104,0.011719,-0.000122,-0.003906,-0.023438,-0.019531
7465088000,0.999939,0.006104,0.011780,-0.000122,-0.003906,-0.023438,0.058594
7481604000,0.999939,0.006104,0.011780,-0.000122,-0.042969,-0.023438,-0.058594
7502652000,0.999939,0.006104,0.011780,-0.000122,0.003906,-0.062500,0.058594
7521512000,0.999939,0.006104,0.011780,-0.000122,-0.003906,0.050781,-0.019531
7541280000,0.999939,0.006042,0.011780,-0.000122,-0.003906,0.050781,-0.019531
7562549000,0.999939,0.006042,0.011780,-0.000122,0.042969,-0.023438,0.019531
7586227000,0.999939,0.006042,0.011780,-0.000122,0.003906,-0.023438,-0.019531
7601576000,0.999939,0.006104,0.011780,-0.000122,0.003906,-0.023438,0.019531
7621749000,0.999939,0.006042,0.011780,-0.000183,0.003906,0.011719,-0.019531
7650964000,0.999939,0.006042,0.011780,-0.000183,0.003906,-0.023438,0.019531
7672061000,0.999939,0.006042,0.011780,-0.000183,0.003906,-0.023438,-0.019531
7680945000,0.999939,0.006042,0.011780,-0.000183,0.003906,-0.023438,-0.019531
7702320000,0.999939,0.006042,0.011780,-0.000183,0.003906,0.019531,-0.011719
7727577000,0.999939,0.006042,0.011780,-0.000183,0.003906,0.011719,-0.011719
7741297000,0.999939,0.006042,0.011780,-0.000183,0.003906,-0.023438,-0.011719
7761339000,0.999939,0.006042,0.011780,-0.000122,-0.003906,-0.015625,0.027344
7782044000,0.999939,0.005920,0.011841,-0.000122,-0.003906,0.019531,0.027344
7810802000,0.999939,0.005920,0.011841,-0.000122,-0.003906,0.019531,-0.011719
7820663000,0.999939,0.005920,0.011841,-0.000183,-0.042969,0.019531,0.027344
7841627000,0.999939,0.005859,0.011841,-0.000122,-0.003906,-0.015625,0.019531
7870763000,0.999939,0.005859,0.011841,-0.000122,-0.003906,-0.015625,0.019531
7886297000,0.999939,0.005798,0.011841,-0.000122,-0.003906,-0.015625,-0.019531
7901238000,0.999939,0.005737,0.011841,-0.000122,-0.003906,-0.007812,-0.019531
7921086000,0.999939,0.005737,0.011841,-0.000122,-0.003906,-0.007812,0.019531
7941174000,0.999939,0.005737,0.011780,-0.000122,0.035156,0.027344,0.019531
7970200000,0.999939,0.005737,0.011780,-0.000122,-0.003906,-0.007812,-0.019531
7980547000,0.999939,0.005737,0.011780,-0.000061,-0.042969,-0.007812,-0.019531
8000741000,0.999939,0.005737,0.011780,-0.000122,-0.003906,-0.007812,0.019531
8020619000,0.999939,0.005737,0.011780,-0.000061,-0.003906,-0.007812,-0.019531
8040946000,0.999939,0.005737,0.011780,-0.000061,-0.003906,-0.007812,0.019531
8060498000,0.999939,0.005737,0.011780,-0.000122,-0.003906,-0.007812,0.019531
8080809000,0.999939,0.005737,0.011780,-0.000122,-0.003906,0.027344,-0.019531
8100480000,0.999939,0.005737,0.011780,-0.000061,-0.003906,-0.007812,-0.019531
8130182000,0.999939,0.005737,0.011780,-0.000061,-0.003906,-0.007812,-0.019531
8139960000,0.999939,0.005737,0.011780,-0.000061,-0.003906,0.027344,0.019531
8161247000,0.999939,0.005737,0.011780,-0.000061,-0.003906,0.027344,-0.019531
8189481000,0.999939,0.005798,0.011780,-0.000061,-0.003906,-0.007812,-0.019531
8198212000,0.999939,0.005798,0.011780,-0.000061,-0.003906,-0.007812,0.019531
8219062000,0.999939,0.005798,0.011841,-0.000061,-0.003906,-0.007812,0.019531
8238983000,0.999939,0.005798,0.011841,-0.000061,-0.003906,-0.007812,0.019531
8260143000,0.999939,0.005737,0.011841,-0.000061,-0.003906,-0.007812,-0.019531
8286316000,0.999939,0.005798,0.011841,-0.000061,-0.003906,-0.007812,-0.019531
8300539000,0.999939,0.005737,0.011841,-0.000061,-0.003906,-0.007812,0.019531
8319785000,0.999939,0.005737,0.011841,-0.000061,-0.003906,0.027344,0.019531
8341014000,0.999939,0.005798,0.011841,-0.000061,-0.003906,-0.007812,0.019531
8359561000,0.999939,0.005798,0.011841,-0.000061,-0.003906,-0.007812,0.019531
8379396000,0.999939,0.005798,0.011841,-0.000061,-0.003906,-0.007812,-0.019531
8399957000,0.999939,0.005798,0.011780,-0.000061,-0.003906,-0.007812,-0.019531
8428959000,0.999939,0.005798,0.011780,-0.000061,-0.003906,0.027344,0.019531
8445403000,0.999939,0.005798,0.011780,-0.000061,-0.003906,-0.007812,-0.019531
8459354000,0.999939,0.005737,0.011780,-0.000061,-0.003906,0.027344,0.019531
8479899000,0.999939,0.005737,0.011780,-0.000061,-0.003906,-0.007812,-0.019531
8499245000,0.999939,0.005798,0.011841,-0.000061,-0.003906,0.027344,-0.019531
8520064000,0.999939,0.005798,0.011841,0.000000,-0.003906,0.019531,0.019531
8540400000,0.999939,0.005798,0.011780,-0.000061,-0.003906,-0.015625,0.019531
8560230000,0.999939,0.005737,0.011780,-0.000061,-0.003906,-0.015625,-0.019531
8591100000,0.999939,0.005737,0.011780,-0.000061,-0.011719,-0.015625,-0.019531
8605899000,0.999939,0.005737,0.011780,-0.000061,-0.011719,-0.015625,0.019531
8619190000,0.999939,0.005737,0.011780,0.000000,-0.011719,0.019531,0.019531
8639415000,0.999939,0.005737,0.011780,0.000000,-0.011719,-0.015625,-0.019531
8669057000,0.999939,0.005737,0.011780,-0.000061,-0.011719,0.019531,0.019531
8688922000,0.999939,0.005737,0.011780,-0.000061,-0.011719,0.019531,0.019531
8698649000,0.999939,0.005737,0.011780,-0.000061,-0.011719,-0.015625,0.019531
8718967000,0.999939,0.005737,0.011780,-0.000061,-0.003906,-0.015625,0.019531
8740184000,0.999939,0.005798,0.011780,-0.000061,-0.003906,-0.015625,-0.019531
8764206000,0.999939,0.005798,0.011780,-0.000061,0.035156,0.011719,-0.019531
8778856000,0.999939,0.005798,0.011841,-0.000061,0.035156,0.011719,-0.019531
8799007000,0.999939,0.005859,0.011841,-0.000061,-0.003906,0.011719,-0.011719
8820810000,0.999939,0.005859,0.011841,-0.000061,-0.003906,-0.023438,0.027344
8847558000,0.999939,0.005859,0.011841,-0.000061,-0.042969,-0.023438,0.027344
8858424000,0.999939,0.005859,0.011841,-0.000061,-0.003906,0.011719,-0.011719
8890244000,0.999939,0.005859,0.011841,-0.000061,-0.003906,0.011719,-0.011719
8907430000,0.999939,0.005859,0.011841,-0.000061,-0.003906,-0.023438,-0.011719
8917743000,0.999939,0.005859,0.011841,-0.000061,-0.003906,-0.023438,-0.011719
8939053000,0.999939,0.005859,0.011841,-0.000061,-0.003906,0.011719,-0.011719
8958590000,0.999939,0.005859,0.011841,-0.000061,-0.003906,-0.023438,-0.011719
8987442000,0.999939,0.005859,0.011841,-0.000061,-0.003906,-0.023438,-0.011719
8997292000,0.999939,0.005859,0.011841,-0.000061,-0.003906,0.011719,0.027344
9018692000,0.999939,0.005859,0.011841,-0.000061,-0.003906,-0.023438,0.027344
9039448000,0.999939,0.005920,0.011841,-0.000061,-0.003906,-0.015625,0.027344
9066957000,0.999939,0.005859,0.011841,-0.000061,-0.003906,-0.015625,-0.011719
9077202000,0.999939,0.005859,0.011841,-0.000061,-0.003906,-0.015625,0.027344
9098662000,0.999939,0.005859,0.011841,-0.000061,-0.003906,0.058594,-0.011719
9118671000,0.999939,0.005859,0.011841,-0.000061,-0.003906,-0.015625,-0.011719
9146856000,0.999939,0.005859,0.011963,-0.000061,-0.003906,0.019531,-0.011719
9157491000,0.999939,0.005859,0.012024,0.000000,0.035156,-0.054688,0.101562
9187447000,0.999939,0.005554,0.012085,0.000977,0.148438,-0.132812,-0.128906
9206151000,0.999939,0.005188,0.012085,0.002441,0.648438,-1.003906,0.027344
9218554000,0.999878,0.004395,0.012024,0.006775,0.976562,-1.257812,0.140625
9247246000,0.999878,0.002441,0.012146,0.012329,-0.507812,0.804688,-0.128906
9263776000,0.999817,0.001892,0.012207,0.013000,-0.394531,0.820312,-0.011719
9278521000,0.999817,0.000977,0.012329,0.013977,-0.085938,0.335938,-0.089844
9298843000,0.999817,0.000061,0.012390,0.014404,-0.093750,0.085938,-0.011719
9326567000,0.999817,-0.001038,0.012451,0.015137,0.371094,-0.230469,-0.089844
9337231000,0.999817,-0.001587,0.012512,0.015564,0.218750,-0.183594,0.066406
9368840000,0.999756,-0.003662,0.012634,0.017029,0.496094,-0.218750,0.027344
9386523000,0.999756,-0.005188,0.012878,0.018250,0.179688,0.085938,-0.011719
9403452000,0.999695,-0.005737,0.012939,0.019165,0.570312,-0.171875,0.066406
9418432000,0.999634,-0.006531,0.013062,0.021545,0.531250,-0.042969,0.027344
9446817000,0.999512,-0.008057,0.013245,0.026062,0.082031,0.027344,-0.058594
9466444000,0.999451,-0.009277,0.013428,0.029175,0.082031,0.011719,-0.171875
9485945000,0.999329,-0.010132,0.013550,0.032837,0.128906,-0.117188,-0.128906
9497155000,0.999268,-0.010559,0.013611,0.034546,0.195312,-0.003906,-0.164062
9527063000,0.999146,-0.013184,0.014160,0.037292,-0.667969,0.003906,0.179688
9546054000,0.999084,-0.013672,0.014160,0.038696,-0.632812,0.183594,0.066406
9566172000,0.999023,-0.014465,0.014343,0.039673,-0.210938,0.191406,0.101562
9577268000,0.998962,-0.014709,0.014465,0.040039,-0.046875,0.207031,-0.050781
9606689000,0.998962,-0.015686,0.014526,0.040894,0.105469,0.066406,-0.050781
9625921000,0.998901,-0.015991,0.014526,0.041321,-0.652344,0.152344,-0.011719
9645594000,0.998901,-0.015991,0.014709,0.041565,-0.539062,0.074219,0.218750
9665377000,0.998901,-0.016174,0.014709,0.041565,-0.425781,-0.031250,0.027344
9685933000,0.998901,-0.016602,0.014893,0.041565,-0.078125,0.160156,0.066406
9710268000,0.998901,-0.016663,0.014954,0.041565,-0.300781,0.054688,-0.011719
9725358000,0.998901,-0.016724,0.015137,0.041504,0.082031,0.015625,0.140625
9745825000,0.998901,-0.016907,0.015442,0.041443,-0.031250,0.015625,0.027344
9765369000,0.998840,-0.017029,0.015808,0.041565,0.003906,0.015625,0.101562
9791966000,0.998840,-0.017090,0.016113,0.041565,-0.132812,0.105469,-0.089844
9805238000,0.998840,-0.017212,0.016418,0.041565,-0.085938,0.031250,-0.011719
9825529000,0.998840,-0.017334,0.017090,0.041565,0.226562,0.031250,0.218750
9846840000,0.998840,-0.017517,0.018005,0.041565,0.359375,0.031250,0.140625
9870852000,0.998779,-0.017395,0.019348,0.041565,0.957031,0.031250,0.109375
9885056000,0.998779,-0.017212,0.020325,0.041565,-0.507812,0.320312,0.035156
9905351000,0.998779,-0.017212,0.020264,0.041443,0.238281,0.082031,-0.503906
9928205000,0.998779,-0.017151,0.019775,0.041199,-0.652344,-0.222656,0.265625
9950674000,0.998840,-0.016968,0.019592,0.041016,-0.238281,-0.136719,-0.082031
9964555000,0.998840,-0.016846,0.019287,0.040894,0.863281,-0.070312,-0.042969
9985246000,0.998840,-0.017822,0.018005,0.040527,0.445312,0.320312,-0.273438
10005825000,0.998962,-0.016846,0.015259,0.039734,-1.265625,-0.046875,4.316406
10032485000,0.998962,-0.017090,0.015320,0.038696,0.687500,0.734375,0.562500
10045075000,0.999023,-0.017578,0.015259,0.038269,-0.078125,-0.117188,0.292969
10065180000,0.998962,-0.017761,0.015259,0.038391,-0.539062,-0.253906,0.066406
10084809000,0.998962,-0.017700,0.015198,0.038940,0.082031,-0.093750,0.179688
10108797000,0.998962,-0.017456,0.015076,0.039795,-0.222656,0.089844,0.179688
10124517000,0.998901,-0.017212,0.015076,0.040527,-0.070312,0.121094,-0.171875
10154755000,0.998901,-0.017273,0.015015,0.040222,0.042969,0.082031,0.093750
10164158000,0.998962,-0.017273,0.014954,0.040039,0.160156,0.273438,-0.210938
10184184000,0.998962,-0.017212,0.014832,0.039673,-0.222656,0.007812,0.250000
10204571000,0.998962,-0.017517,0.014832,0.039429,-0.148438,0.007812,0.210938
10234330000,0.998962,-0.017456,0.014771,0.039307,-0.222656,0.015625,-0.019531
10251458000,0.998962,-0.017578,0.014709,0.039429,-0.148438,-0.023438,0.019531
10263946000,0.998962,-0.017639,0.014771,0.039673,-0.300781,0.054688,-0.171875
10284128000,0.998962,-0.017822,0.014771,0.039734,-0.261719,0.097656,-0.097656
10303664000,0.998962,-0.017700,0.014648,0.039551,-0.300781,0.089844,0.132812
10333743000,0.998962,-0.017639,0.014526,0.039001,-0.070312,0.054688,0.093750
10348854000,0.998962,-0.017578,0.014526,0.038940,0.378906,-0.062500,0.058594
10363676000,0.998962,-0.017700,0.014526,0.038879,-0.117188,0.054688,0.093750
10383907000,0.998962,-0.017517,0.014404,0.039001,0.152344,-0.023438,0.019531
10405141000,0.998962,-0.017334,0.014404,0.039246,0.343750,0.054688,0.058594
10430328000,0.998962,-0.017517,0.014404,0.039062,0.074219,0.082031,0.058594
10443570000,0.999023,-0.017517,0.014221,0.038452,0.304688,0.089844,-0.171875
10463352000,0.999023,-0.017517,0.014282,0.037781,0.496094,0.007812,0.210938
10483784000,0.999023,-0.017761,0.013977,0.037842,-0.269531,0.082031,0.250000
10507549000,0.999023,-0.017822,0.014038,0.038574,-0.156250,-0.062500,0.250000
10523461000,0.999023,-0.017456,0.014221,0.038635,-0.777344,-0.070312,-0.027344
10543624000,0.998962,-0.017761,0.015442,0.038330,-0.683594,0.199219,0.242188
10573743000,0.999023,-0.017456,0.015564,0.037476,-1.113281,-0.183594,-0.718750
10583268000,0.999023,-0.017639,0.015564,0.037415,-1.656250,-0.144531,0.242188
10603025000,0.999023,-0.017639,0.015503,0.037415,-0.085938,-0.144531,-0.066406
10625309000,0.999023,-0.017761,0.015503,0.037415,0.027344,0.121094,0.164062
10642678000,0.999023,-0.017639,0.015442,0.037415,-0.046875,0.007812,-0.027344
10662820000,0.999023,-0.017700,0.015442,0.037415,-0.015625,0.082031,0.050781
10682611000,0.999023,-0.017761,0.015442,0.037354,0.210938,0.082031,0.050781
10703240000,0.999023,-0.017517,0.015442,0.037170,0.449219,-0.031250,0.011719
10725039000,0.999023,-0.017395,0.015381,0.037048,0.183594,0.039062,0.011719
10742584000,0.999023,-0.017395,0.015381,0.037292,0.144531,-0.078125,0.050781
10762697000,0.999023,-0.017456,0.015320,0.037781,-0.316406,0.152344,-0.066406
10782486000,0.999023,-0.017578,0.015259,0.038269,-0.007812,0.039062,-0.027344
10812883000,0.998962,-0.017578,0.015198,0.038818,-0.199219,0.074219,-0.027344
10826706000,0.998962,-0.017517,0.015259,0.038818,-0.085938,0.039062,0.050781
10842979000,0.998962,-0.017395,0.015320,0.038879,0.066406,0.000000,0.050781
10862403000,0.998962,-0.017334,0.015320,0.038940,-0.191406,0.113281,-0.027344
10886271000,0.998962,-0.017151,0.015259,0.039001,0.113281,-0.039062,-0.027344
10901863000,0.998962,-0.017151,0.015198,0.039062,-0.046875,0.058594,-0.027344
10922904000,0.998962,-0.017151,0.015137,0.039062,-0.277344,0.023438,0.011719
10941996000,0.998962,-0.017090,0.015137,0.039062,0.410156,-0.015625,0.011719
10962540000,0.998962,-0.017212,0.015076,0.039124,0.640625,0.023438,0.085938
10982275000,0.998962,-0.017151,0.014954,0.039185,0.144531,-0.015625,0.011719
11001644000,0.998962,-0.017273,0.014893,0.039246,-0.191406,0.097656,0.050781
11022312000,0.998962,-0.017273,0.014709,0.039246,-0.199219,0.058594,-0.105469
11048268000,0.998962,-0.016968,0.014282,0.039185,-0.621094,0.097656,0.011719
11061756000,0.999023,-0.016357,0.013794,0.039185,-0.937500,-0.023438,0.085938
11081361000,0.999023,-0.016418,0.013794,0.039246,0.050781,0.113281,0.125000
11111413000,0.999023,-0.016541,0.013977,0.039185,-0.523438,0.113281,0.085938
11121389000,0.998962,-0.017090,0.014343,0.039062,-0.445312,0.199219,0.203125
11142127000,0.998962,-0.017151,0.014465,0.039001,-0.132812,-0.132812,-0.257812
11161552000,0.998962,-0.017273,0.014526,0.039001,0.328125,0.136719,0.125000
11183240000,0.998962,-0.017395,0.014587,0.039001,0.097656,0.097656,0.050781
11206641000,0.998962,-0.017395,0.014587,0.039001,-0.007812,0.023438,0.011719
11221562000,0.998962,-0.017395,0.014709,0.039001,0.000000,0.058594,0.011719
11241678000,0.998962,-0.017517,0.014771,0.038940,0.000000,0.023438,0.011719
11262000000,0.998962,-0.017639,0.014771,0.038757,0.152344,0.105469,0.050781
11286913000,0.999023,-0.017395,0.014587,0.038269,-0.117188,0.058594,0.085938
11301466000,0.999023,-0.017517,0.014587,0.037781,0.074219,0.058594,0.050781
11321203000,0.999023,-0.016968,0.014160,0.037537,-0.347656,-0.015625,-0.066406
11341502000,0.999023,-0.016968,0.014160,0.037476,-0.394531,0.050781,0.203125
11360541000,0.999023,-0.017090,0.014221,0.037476,-0.046875,-0.023438,-0.066406
11380627000,0.999084,-0.016968,0.014099,0.037476,-0.007812,0.015625,-0.027344
11400653000,0.999023,-0.017090,0.014160,0.037476,-0.007812,0.050781,0.011719
11420653000,0.999084,-0.017029,0.014099,0.037476,-0.007812,0.007812,-0.027344
11441148000,0.999023,-0.017090,0.014099,0.037476,-0.054688,0.042969,0.011719
11460677000,0.999084,-0.016968,0.014038,0.037476,-0.054688,0.042969,0.011719
11480978000,0.999023,-0.017029,0.014038,0.037476,-0.015625,0.082031,0.011719
11510618000,0.999023,-0.017151,0.014099,0.037476,-0.007812,0.042969,0.011719
11520819000,0.999023,-0.017151,0.014099,0.037476,-0.007812,0.042969,0.011719
11540047000,0.999023,-0.017090,0.014099,0.037476,-0.007812,0.042969,0.050781
11570476000,0.999023,-0.017151,0.014099,0.037415,-0.007812,0.007812,0.011719
11580087000,0.999023,-0.017151,0.014099,0.037415,-0.007812,0.042969,0.050781
11600324000,0.999023,-0.017151,0.014099,0.037415,-0.007812,0.042969,0.011719
11619933000,0.999023,-0.017151,0.014099,0.037415,-0.007812,0.007812,0.011719
11650265000,0.999084,-0.017151,0.014038,0.037415,-0.007812,0.042969,0.011719
11665196000,0.999084,-0.017151,0.014038,0.037415,0.050781,0.003906,0.003906
11685050000,0.999084,-0.017090,0.014038,0.037354,0.015625,0.003906,0.003906
11700583000,0.999084,-0.017151,0.014099,0.037354,0.015625,0.003906,0.003906
11720284000,0.999084,-0.017151,0.014099,0.037415,0.015625,0.003906,0.003906
11740731000,0.999084,-0.017151,0.014099,0.037354,0.015625,0.003906,0.003906
11770073000,0.999084,-0.017029,0.014038,0.037415,0.007812,0.003906,0.003906
11780138000,0.999084,-0.016968,0.014038,0.037354,0.007812,0.003906,0.003906
11800306000,0.999084,-0.016968,0.013977,0.037354,0.007812,0.003906,-0.035156
11821450000,0.999084,-0.016968,0.013977,0.037354,0.007812,0.003906,0.003906
11844655000,0.999084,-0.016907,0.013916,0.037354,0.007812,-0.003906,-0.035156
11860069000,0.999084,-0.016907,0.013916,0.037354,0.007812,-0.003906,-0.035156
11879935000,0.999084,-0.016907,0.013916,0.037354,0.007812,0.035156,0.011719
11899864000,0.999084,-0.016846,0.013916,0.037354,0.007812,-0.011719,0.011719
11919944000,0.999084,-0.016846,0.013916,0.037292,0.042969,-0.011719,0.011719
11939957000,0.999084,-0.016846,0.013916,0.037292,0.007812,-0.011719,0.011719
11969726000,0.999084,-0.016846,0.013916,0.037354,0.000000,-0.011719,0.011719
11979176000,0.999084,-0.016846,0.013916,0.037354,0.000000,-0.011719,0.011719
11999993000,0.999084,-0.016846,0.013977,0.037292,-0.039062,-0.011719,0.011719
12019895000,0.999084,-0.016846,0.013977,0.037292,0.000000,-0.011719,0.011719
12049780000,0.999084,-0.016907,0.013977,0.037354,0.000000,-0.011719,0.011719
12059349000,0.999084,-0.016968,0.013977,0.037354,0.000000,-0.011719,0.011719
12079623000,0.999084,-0.016968,0.013977,0.037354,0.000000,-0.011719,0.011719
12108940000,0.999084,-0.016907,0.013977,0.037292,0.000000,-0.003906,-0.027344
12124413000,0.999084,-0.016907,0.013977,0.037292,0.000000,-0.003906,0.050781
12139138000,0.999084,-0.016907,0.013977,0.037292,0.000000,-0.003906,0.011719
12160558000,0.999084,-0.016846,0.013977,0.037292,0.000000,-0.003906,0.011719
12179276000,0.999084,-0.016846,0.013916,0.037292,0.000000,-0.003906,0.011719
12199388000,0.999084,-0.016724,0.013916,0.037292,0.000000,-0.003906,0.011719
12219221000,0.999084,-0.016724,0.013916,0.037292,0.000000,-0.003906,0.011719
12248507000,0.999084,-0.016724,0.013916,0.037292,0.035156,-0.003906,0.003906
12258675000,0.999084,-0.016724,0.013916,0.037292,0.035156,-0.003906,0.003906
12288570000,0.999084,-0.016785,0.013977,0.037292,0.000000,-0.003906,0.003906
12298236000,0.999084,-0.016785,0.013977,0.037292,0.000000,-0.003906,0.003906
12319232000,0.999084,-0.016724,0.013977,0.037231,0.000000,-0.003906,0.003906
12338957000,0.999084,-0.016724,0.013977,0.037231,0.000000,-0.003906,0.003906
12368720000,0.999084,-0.016724,0.013916,0.037231,0.000000,-0.003906,0.003906
12385651000,0.999084,-0.016724,0.013916,0.037292,0.000000,-0.039062,0.003906
12398658000,0.999084,-0.016724,0.013916,0.037292,0.000000,-0.003906,0.003906
12418747000,0.999084,-0.016724,0.013916,0.037292,0.000000,-0.003906,0.003906
12447975000,0.999084,-0.016663,0.013916,0.037292,0.000000,-0.003906,0.003906
12462635000,0.999084,-0.016663,0.013916,0.037292,0.000000,-0.003906,0.003906
12478580000,0.999084,-0.016663,0.013916,0.037292,0.035156,-0.003906,0.003906
12498780000,0.999084,-0.016663,0.013916,0.037292,0.000000,-0.003906,0.003906
12528042000,0.999084,-0.016724,0.013916,0.037292,0.035156,-0.003906,0.003906
12537988000,0.999084,-0.016724,0.013916,0.037292,0.000000,-0.003906,0.042969
12558429000,0.999084,-0.016663,0.013916,0.037292,-0.039062,-0.003906,0.003906
12578826000,0.999084,-0.016663,0.013916,0.037292,0.000000,-0.003906,0.003906
12598517000,0.999084,-0.016602,0.013916,0.037292,0.000000,-0.003906,0.003906
12627736000,0.999084,-0.016663,0.013916,0.037292,0.000000,-0.003906,0.003906
12637284000,0.999084,-0.016663,0.013916,0.037292,0.000000,-0.003906,0.003906
12658458000,0.999084,-0.016663,0.013916,0.037292,0.000000,-0.003906,0.003906
12687105000,0.999084,-0.016663,0.013916,0.037292,0.000000,-0.003906,0.042969
12697204000,0.999084,-0.016663,0.013916,0.037292,0.000000,-0.003906,0.003906
12718398000,0.999084,-0.016663,0.013916,0.037292,0.035156,-0.003906,0.003906
12738533000,0.999084,-0.016724,0.013977,0.037292,0.000000,-0.003906,0.003906
12766972000,0.999084,-0.016724,0.013977,0.037292,0.000000,-0.039062,0.003906
12777159000,0.999084,-0.016663,0.013977,0.037292,0.000000,-0.003906,0.042969
12798493000,0.999084,-0.016663,0.013916,0.037231,0.000000,-0.003906,0.003906
12818415000,0.999084,-0.016602,0.013916,0.037231,0.000000,-0.003906,-0.035156
12838568000,0.999084,-0.016602,0.013916,0.037231,0.000000,-0.003906,0.003906
12867412000,0.999084,-0.016541,0.013916,0.037170,0.035156,-0.003906,0.042969
12877117000,0.999084,-0.016541,0.013916,0.037170,0.000000,-0.003906,0.003906
12898440000,0.999084,-0.016602,0.013916,0.037231,0.000000,-0.039062,0.003906
12926550000,0.999084,-0.016602,0.013916,0.037231,0.000000,-0.003906,-0.035156
12937174000,0.999084,-0.016602,0.013916,0.037231,0.000000,-0.003906,0.003906
12966317000,0.999084,-0.016602,0.013916,0.037231,0.000000,-0.003906,0.003906
12986688000,0.999084,-0.016541,0.013916,0.037231,0.000000,-0.003906,0.003906
13006523000,0.999084,-0.016541,0.013916,0.037170,0.000000,-0.003906,-0.035156
13017177000,0.999084,-0.016541,0.013916,0.037170,0.035156,-0.003906,0.003906
13046506000,0.999084,-0.016479,0.013855,0.037231,-0.007812,-0.003906,0.003906
13066302000,0.999084,-0.016479,0.013855,0.037231,-0.007812,-0.039062,0.003906
13086172000,0.999084,-0.016479,0.013855,0.037231,-0.007812,-0.039062,0.003906
13110406000,0.999084,-0.016418,0.013855,0.037231,-0.007812,-0.011719,0.003906
13126396000,0.999084,-0.016479,0.013855,0.037170,-0.007812,-0.011719,0.003906
13146062000,0.999084,-0.016418,0.013855,0.037170,-0.007812,-0.011719,0.003906
13166849000,0.999084,-0.016418,0.013855,0.037170,-0.007812,-0.011719,0.003906
13190797000,0.999084,-0.016418,0.013855,0.037170,-0.007812,-0.011719,0.003906
13206217000,0.999084,-0.016479,0.013855,0.037170,0.000000,-0.003906,0.003906
13226309000,0.999084,-0.016418,0.013855,0.037170,0.000000,-0.003906,0.003906
13246571000,0.999084,-0.016418,0.013855,0.037170,0.000000,-0.003906,0.003906
13268093000,0.999084,-0.016418,0.013855,0.037170,0.035156,-0.003906,-0.035156
13286493000,0.999084,-0.016357,0.013855,0.037170,0.000000,-0.003906,-0.035156
13305681000,0.999084,-0.016296,0.013794,0.037170,0.000000,-0.039062,0.003906
13325630000,0.999084,-0.016296,0.013794,0.037170,0.000000,-0.003906,0.003906
13351549000,0.999084,-0.016296,0.013855,0.037170,0.000000,-0.003906,0.003906
13366113000,0.999084,-0.016296,0.013794,0.037170,0.000000,-0.003906,0.003906
13385524000,0.999084,-0.016296,0.013855,0.037170,0.000000,-0.003906,0.003906
13406710000,0.999084,-0.016296,0.013855,0.037231,0.000000,-0.003906,-0.035156
13431213000,0.999084,-0.016357,0.013916,0.037231,0.000000,-0.003906,0.003906
13445485000,0.999084,-0.016357,0.013916,0.037231,0.000000,-0.003906,0.003906
13465629000,0.999084,-0.016357,0.013916,0.037231,-0.039062,-0.003906,0.003906
13485575000,0.999084,-0.016296,0.013916,0.037170,0.000000,-0.003906,0.003906
13511392000,0.999084,-0.016235,0.013855,0.037170,0.000000,-0.003906,0.003906
13525475000,0.999084,-0.016174,0.013855,0.037170,0.000000,-0.003906,0.003906
13545783000,0.999084,-0.016174,0.013794,0.037170,0.000000,-0.003906,-0.035156
13565150000,0.999084,-0.016174,0.013794,0.037170,0.000000,-0.003906,0.003906
13590538000,0.999084,-0.016174,0.013855,0.037170,0.007812,-0.003906,0.003906
13605218000,0.999084,-0.016174,0.013794,0.037109,0.007812,-0.003906,0.003906
13625182000,0.999084,-0.016174,0.013794,0.037109,0.007812,-0.003906,0.003906
13645628000,0.999084,-0.016113,0.013794,0.037109,0.007812,-0.003906,-0.035156
13669762000,0.999084,-0.016113,0.013794,0.037109,0.007812,-0.003906,0.003906
13685305000,0.999084,-0.016113,0.013794,0.037109,0.007812,-0.003906,-0.035156
13704522000,0.999084,-0.016174,0.013855,0.037170,0.007812,-0.003906,0.003906
13725076000,0.999084,-0.016235,0.013855,0.037109,0.007812,-0.003906,0.003906
13748055000,0.999084,-0.016235,0.013855,0.037109,0.007812,-0.003906,0.003906
13764595000,0.999084,-0.016174,0.013794,0.037109,0.007812,-0.039062,-0.035156
13784732000,0.999084,-0.016174,0.013794,0.037109,0.007812,-0.003906,0.003906
13804695000,0.999084,-0.016174,0.013794,0.037109,0.042969,-0.003906,0.042969
13826101000,0.999084,-0.016113,0.013794,0.037109,0.007812,-0.003906,0.003906
13844562000,0.999084,-0.016174,0.013855,0.037109,0.000000,-0.003906,0.003906
13864554000,0.999084,-0.016174,0.013855,0.037109,0.035156,-0.003906,-0.035156
13884781000,0.999084,-0.016174,0.013855,0.037109,0.000000,-0.003906,0.042969
13906073000,0.999084,-0.016174,0.013794,0.037109,0.000000,-0.003906,0.003906
13924502000,0.999084,-0.016174,0.013794,0.037109,0.000000,-0.003906,-0.035156
13947917000,0.999084,-0.016174,0.013794,0.037109,-0.007812,-0.039062,0.003906
13963928000,0.999084,-0.016174,0.013733,0.037109,-0.007812,-0.003906,0.003906
13983997000,0.999084,-0.016113,0.013794,0.037109,0.027344,-0.003906,0.003906
14003723000,0.999084,-0.016113,0.013733,0.037109,-0.007812,-0.003906,0.003906
14033685000,0.999084,-0.016113,0.013794,0.037048,-0.007812,-0.003906,0.003906
14043661000,0.999084,-0.016113,0.013794,0.037048,0.000000,-0.003906,0.003906
14063948000,0.999084,-0.016113,0.013794,0.037048,-0.039062,-0.003906,0.003906
14088564000,0.999084,-0.016052,0.013794,0.037048,0.000000,-0.003906,-0.035156
14103938000,0.999084,-0.015930,0.013733,0.037048,-0.007812,-0.003906,0.003906
14123624000,0.999084,-0.015625,0.013550,0.037048,-0.007812,-0.011719,-0.035156
14147338000,0.999084,-0.015381,0.013489,0.037048,0.019531,-0.019531,0.011719
14163479000,0.999084,-0.015686,0.013672,0.037048,0.027344,0.019531,0.078125
14183926000,0.999146,-0.013733,0.012817,0.036438,0.894531,-0.164062,-0.410156
14203584000,0.999207,-0.013245,0.012390,0.036133,-0.433594,0.339844,0.777344
14229755000,0.999146,-0.013672,0.012634,0.036255,0.097656,0.035156,0.085938
14243415000,0.999146,-0.013550,0.012573,0.036804,-0.054688,0.011719,0.125000
14262908000,0.999146,-0.013611,0.012634,0.037720,0.019531,-0.027344,-0.058594
14283319000,0.999084,-0.013611,0.012573,0.037964,-0.210938,0.164062,0.050781
14313233000,0.999084,-0.013855,0.012451,0.038086,0.394531,-0.019531,0.011719
14329877000,0.999084,-0.014160,0.012512,0.038086,0.355469,-0.054688,0.058594
14342796000,0.999084,-0.015625,0.012878,0.038147,0.320312,0.187500,-0.019531
14363181000,0.999084,-0.016113,0.012817,0.038208,0.210938,-0.164062,-0.289062
14383329000,0.999023,-0.016479,0.012878,0.038269,0.472656,0.121094,0.058594
14407333000,0.999084,-0.016235,0.012756,0.038269,0.511719,0.160156,-0.019531
14422244000,0.999023,-0.016541,0.012878,0.038208,0.121094,-0.414062,-0.171875
14442839000,0.999023,-0.016663,0.012817,0.038269,-0.187500,-0.101562,0.019531
14462823000,0.999023,-0.016541,0.012878,0.038269,0.003906,0.128906,0.132812
14485864000,0.999084,-0.016174,0.012878,0.038208,-0.148438,-0.148438,0.019531
14502097000,0.999084,-0.016235,0.012817,0.037659,-0.300781,0.007812,0.019531
14523054000,0.999146,-0.016174,0.012756,0.036621,0.148438,-0.031250,-0.011719
14542702000,0.999146,-0.016357,0.012512,0.035706,-0.078125,0.199219,0.101562
14566371000,0.999207,-0.016296,0.011902,0.035095,-0.355469,-0.175781,-0.089844
14582058000,0.999207,-0.015930,0.011230,0.035278,0.164062,-0.109375,0.140625
14602057000,0.999207,-0.016174,0.011047,0.034973,-0.722656,0.199219,0.140625
14622804000,0.999207,-0.015930,0.009949,0.034851,-0.273438,-0.070312,0.027344
14648722000,0.999207,-0.015930,0.009705,0.035156,0.210938,0.000000,0.066406
14662087000,0.999207,-0.015930,0.009399,0.035645,-0.140625,-0.031250,0.066406
14682022000,0.999146,-0.015808,0.009033,0.036377,0.316406,0.035156,0.066406
14702671000,0.999146,-0.015625,0.008606,0.037231,0.460938,-0.117188,0.027344
14725952000,0.999146,-0.015442,0.008423,0.036926,0.445312,-0.230469,0.066406
14741945000,0.999146,-0.015442,0.008423,0.036743,0.062500,-0.191406,-0.050781
14762042000,0.999146,-0.015564,0.008545,0.036804,-0.394531,-0.199219,0.027344
14782538000,0.999146,-0.015564,0.008667,0.036865,0.070312,0.035156,-0.011719
14812274000,0.999146,-0.015259,0.008789,0.037048,0.070312,0.074219,-0.050781
14826649000,0.999146,-0.015625,0.008850,0.037109,0.148438,-0.117188,-0.011719
14841464000,0.999146,-0.015320,0.009094,0.037231,0.035156,-0.117188,0.066406
14862055000,0.999146,-0.015625,0.009399,0.037415,-0.035156,-0.046875,0.027344
14891318000,0.999146,-0.015625,0.009949,0.037415,-0.019531,0.226562,-0.011719
14905801000,0.999146,-0.015381,0.010071,0.037415,-0.171875,0.000000,-0.011719
14921128000,0.999146,-0.015808,0.010193,0.037231,0.292969,0.191406,0.066406
14956384000,0.999146,-0.015259,0.010803,0.036743,0.722656,-0.046875,0.027344
14962374000,0.999146,-0.015686,0.011047,0.036499,0.101562,0.027344,0.218750
14981139000,0.999146,-0.015808,0.011597,0.035889,0.117188,-0.238281,-0.050781
15001765000,0.999207,-0.015747,0.011658,0.035278,-0.250000,-0.085938,-0.011719
15020918000,0.999207,-0.015564,0.011719,0.034790,-0.058594,-0.085938,0.066406
15050960000,0.999207,-0.015808,0.011658,0.033813,-0.058594,0.105469,0.066406
15061352000,0.999268,-0.015747,0.011658,0.033447,-0.171875,0.027344,0.218750
15081880000,0.999268,-0.015747,0.011658,0.032593,-0.363281,0.183594,0.332031
15100969000,0.999329,-0.015442,0.011719,0.031616,-0.593750,0.449219,0.792969
15125871000,0.999329,-0.015747,0.011658,0.030457,-0.707031,0.601562,0.832031
15140659000,0.999390,-0.015808,0.011658,0.029724,-0.593750,-0.164062,-0.128906
15160694000,0.999390,-0.015686,0.011780,0.029846,-0.480469,-0.468750,0.140625
15187397000,0.999329,-0.015503,0.011780,0.030151,0.210938,0.105469,0.101562
15200278000,0.999329,-0.015503,0.011841,0.030396,-0.093750,0.097656,0.179688
15220073000,0.999329,-0.015747,0.011902,0.030579,-0.402344,-0.054688,0.218750
15249096000,0.999329,-0.015564,0.011780,0.030518,-0.824219,-0.164062,-0.136719
15258327000,0.999329,-0.015564,0.011841,0.030457,0.250000,-0.007812,0.058594
15279664000,0.999329,-0.015442,0.011841,0.030457,-0.210938,-0.015625,0.058594
15303154000,0.999329,-0.015198,0.011841,0.030457,-0.050781,-0.015625,-0.058594
15318275000,0.999329,-0.015259,0.011780,0.030518,-0.050781,0.019531,0.019531
15339534000,0.999329,-0.015198,0.011841,0.030518,0.066406,0.058594,0.058594
15359481000,0.999329,-0.015137,0.011841,0.030579,-0.085938,0.167969,0.171875
15387387000,0.999329,-0.014893,0.011841,0.030518,-0.011719,-0.023438,-0.019531
15398226000,0.999329,-0.014954,0.011719,0.030396,-0.507812,-0.023438,-0.019531
15419433000,0.999329,-0.014954,0.011719,0.030396,-0.394531,-0.023438,0.019531
15450248000,0.999390,-0.014954,0.011719,0.030334,0.523438,-0.023438,0.058594
15458366000,0.999390,-0.014954,0.011719,0.030273,0.640625,0.011719,0.019531
15479108000,0.999390,-0.014954,0.011658,0.030212,0.332031,-0.062500,-0.019531
15500159000,0.999390,-0.014709,0.011536,0.029968,-0.355469,0.089844,0.093750
15529394000,0.999390,-0.014954,0.011658,0.029419,0.265625,-0.023438,0.093750
15546009000,0.999390,-0.015015,0.011780,0.029297,0.113281,-0.101562,-0.058594
15560162000,0.999390,-0.015381,0.011902,0.029114,-0.378906,-0.015625,-0.019531
15579699000,0.999390,-0.015320,0.011841,0.028870,-0.457031,0.058594,-0.019531
15601454000,0.999390,-0.015320,0.011841,0.028809,-0.839844,0.105469,0.058594
15626199000,0.999390,-0.015320,0.011841,0.028687,0.003906,-0.007812,0.058594
15640023000,0.999390,-0.015381,0.011841,0.028564,0.121094,-0.007812,0.019531
15669201000,0.999390,-0.015442,0.011841,0.028564,-0.109375,-0.007812,0.019531
15685378000,0.999390,-0.015503,0.011841,0.028564,-0.035156,0.035156,0.019531
15699000000,0.999390,-0.015503,0.011902,0.028564,-0.035156,0.035156,0.019531
15719767000,0.999390,-0.015503,0.011902,0.028564,-0.027344,0.000000,0.019531
15749311000,0.999390,-0.015503,0.011902,0.028564,-0.027344,0.000000,0.019531
15767240000,0.999390,-0.015503,0.011902,0.028564,-0.062500,0.000000,0.019531
15779007000,0.999390,-0.015503,0.011841,0.028625,-0.027344,0.035156,0.019531
15799631000,0.999390,-0.015503,0.011841,0.028625,-0.027344,0.035156,0.019531
15828600000,0.999390,-0.015503,0.011841,0.028625,-0.292969,0.000000,-0.027344
15838411000,0.999390,-0.015503,0.011841,0.028625,-0.140625,0.000000,-0.027344
15861609000,0.999390,-0.015442,0.011841,0.028625,-0.062500,0.000000,0.011719
15878995000,0.999390,-0.015503,0.011902,0.028625,-0.027344,0.035156,0.050781
15908370000,0.999390,-0.015503,0.011902,0.028625,-0.027344,0.035156,0.011719
15918425000,0.999390,-0.015503,0.011902,0.028625,-0.027344,0.000000,-0.027344
15939141000,0.999390,-0.015503,0.011902,0.028625,-0.054688,0.035156,-0.027344
15959056000,0.999390,-0.015564,0.011902,0.028625,-0.019531,0.000000,0.011719
15979953000,0.999390,-0.015564,0.011902,0.028625,-0.054688,0.035156,0.011719
16008067000,0.999390,-0.015564,0.011902,0.028625,0.003906,-0.015625,0.042969
16018795000,0.999390,-0.015625,0.011902,0.028625,0.042969,-0.015625,0.003906
16039009000,0.999390,-0.015625,0.011902,0.028625,0.003906,0.019531,0.003906
16059590000,0.999390,-0.015625,0.011902,0.028564,0.003906,0.019531,0.003906
16088321000,0.999390,-0.015686,0.011902,0.028564,0.042969,0.019531,0.042969
16098308000,0.999390,-0.015625,0.011902,0.028564,-0.031250,-0.015625,0.003906
16119144000,0.999390,-0.015625,0.011902,0.028564,0.003906,0.019531,0.003906
16147869000,0.999390,-0.015625,0.011902,0.028503,-0.031250,0.019531,0.003906
16168486000,0.999390,-0.015625,0.011902,0.028503,-0.031250,0.019531,0.003906
16177320000,0.999390,-0.015686,0.011902,0.028503,-0.031250,0.019531,0.003906
16199090000,0.999390,-0.015625,0.011902,0.028503,0.003906,-0.015625,0.003906
16218922000,0.999390,-0.015625,0.011902,0.028503,0.003906,-0.015625,0.003906
16247696000,0.999390,-0.015625,0.011963,0.028503,0.003906,-0.015625,0.003906
16257714000,0.999390,-0.015625,0.011963,0.028503,0.003906,0.019531,0.042969
16278784000,0.999390,-0.015625,0.011963,0.028503,0.003906,0.019531,-0.035156
16308016000,0.999390,-0.015625,0.011902,0.028503,0.003906,-0.015625,0.042969
16317672000,0.999390,-0.015625,0.011902,0.028503,0.003906,-0.015625,0.003906
16338670000,0.999390,-0.015625,0.011902,0.028503,0.003906,-0.015625,0.003906
16364780000,0.999390,-0.015625,0.011963,0.028503,-0.031250,-0.015625,0.003906
16378498000,0.999390,-0.015625,0.011963,0.028503,0.003906,-0.015625,0.003906
16398626000,0.999390,-0.015686,0.011963,0.028503,0.003906,-0.015625,-0.035156
16427322000,0.999390,-0.015625,0.011963,0.028442,0.195312,0.019531,0.042969
16442812000,0.999390,-0.015686,0.011963,0.028442,0.160156,0.019531,0.003906
16459281000,0.999390,-0.015625,0.011963,0.028442,-0.187500,-0.015625,0.003906
16486995000,0.999390,-0.015686,0.011963,0.028442,0.003906,-0.015625,0.042969
16497257000,0.999390,-0.015686,0.011963,0.028442,0.003906,0.019531,0.003906
16526953000,0.999390,-0.015625,0.011963,0.028442,-0.031250,-0.015625,0.003906
16543533000,0.999390,-0.015625,0.011963,0.028442,-0.031250,-0.015625,0.003906
16558541000,0.999390,-0.015625,0.011963,0.028442,0.003906,-0.015625,0.003906
16586977000,0.999390,-0.015625,0.011963,0.028442,0.003906,-0.015625,0.003906
16606704000,0.999390,-0.015625,0.011963,0.028442,0.003906,-0.015625,0.003906
16617279000,0.999390,-0.015625,0.011963,0.028442,0.003906,-0.015625,0.003906
16647410000,0.999390,-0.015625,0.011963,0.028442,0.003906,-0.015625,0.003906
16657351000,0.999390,-0.015686,0.011963,0.028442,0.003906,0.019531,0.003906
16689323000,0.999390,-0.015686,0.011963,0.028442,0.003906,-0.015625,0.003906
16697294000,0.999390,-0.015686,0.011963,0.028442,0.003906,0.019531,0.003906
16726928000,0.999390,-0.015686,0.011963,0.028442,-0.031250,-0.015625,0.003906
16748603000,0.999390,-0.015686,0.011963,0.028442,0.003906,-0.015625,0.003906
16757304000,0.999390,-0.015747,0.011963,0.028442,0.003906,0.019531,0.003906
16786238000,0.999390,-0.015747,0.011963,0.028442,0.003906,-0.015625,0.003906
16804412000,0.999390,-0.015747,0.011963,0.028381,0.003906,-0.015625,0.003906
16830961000,0.999390,-0.015808,0.011963,0.028381,0.003906,-0.015625,0.003906
16837329000,0.999390,-0.015808,0.011963,0.028381,0.003906,-0.015625,0.003906
16870187000,0.999390,-0.015808,0.011963,0.028442,0.003906,0.019531,0.003906
16878542000,0.999390,-0.015747,0.011963,0.028442,0.003906,-0.015625,-0.035156
16905585000,0.999390,-0.015808,0.011963,0.028381,0.003906,-0.015625,0.003906
16926164000,0.999390,-0.015808,0.011963,0.028381,-0.031250,-0.015625,0.003906
16947553000,0.999390,-0.015808,0.011963,0.028381,0.003906,0.019531,0.003906
16965504000,0.999390,-0.015808,0.011963,0.028381,0.003906,-0.015625,0.003906
16988272000,0.999390,-0.015808,0.011963,0.028381,0.003906,-0.015625,0.003906
17005616000,0.999390,-0.015747,0.012024,0.028381,0.003906,0.019531,0.003906
17026001000,0.999390,-0.015747,0.012024,0.028381,0.003906,0.019531,0.003906
17045660000,0.999390,-0.015747,0.012024,0.028381,0.003906,0.019531,0.003906
17065781000,0.999390,-0.015747,0.012024,0.028381,-0.031250,-0.015625,0.003906
17085568000,0.999390,-0.015747,0.012024,0.028381,-0.031250,-0.015625,0.003906
17110856000,0.999390,-0.015808,0.012024,0.028381,-0.031250,-0.015625,0.003906
17125904000,0.999390,-0.015808,0.012024,0.028381,0.003906,-0.015625,0.003906
17144945000,0.999390,-0.015808,0.011963,0.028381,-0.031250,-0.015625,0.003906
17164958000,0.999390,-0.015808,0.011963,0.028381,0.003906,0.019531,0.003906
17194989000,0.999390,-0.015808,0.012024,0.028381,0.003906,-0.015625,0.042969
17204776000,0.999390,-0.015747,0.012024,0.028381,0.003906,-0.015625,0.042969
17225427000,0.999390,-0.015747,0.012024,0.028381,0.003906,-0.015625,0.003906
17244781000,0.999390,-0.015747,0.012024,0.028320,-0.031250,-0.015625,0.003906
17264613000,0.999390,-0.015747,0.012024,0.028320,-0.023438,-0.015625,0.003906
17286319000,0.999390,-0.015747,0.012024,0.028320,0.011719,0.019531,0.003906
17306038000,0.999390,-0.015747,0.012085,0.028320,0.011719,-0.015625,0.003906
17331281000,0.999390,-0.015747,0.012085,0.028320,0.011719,-0.015625,0.042969
17344421000,0.999390,-0.015747,0.012085,0.028320,0.011719,-0.015625,0.003906
17365050000,0.999390,-0.015747,0.012085,0.028320,0.003906,-0.015625,-0.035156
17387259000,0.999390,-0.015747,0.012085,0.028320,0.003906,0.027344,0.003906
17404424000,0.999390,-0.015747,0.012085,0.028320,0.003906,-0.007812,0.042969
17424064000,0.999390,-0.015747,0.012085,0.028320,0.003906,-0.007812,0.003906
17444414000,0.999390,-0.015747,0.012085,0.028259,0.003906,-0.007812,0.003906
17469869000,0.999390,-0.015747,0.012085,0.028259,0.003906,-0.007812,0.042969
17484337000,0.999390,-0.015747,0.012085,0.028259,-0.031250,0.027344,0.003906
17503942000,0.999390,-0.015747,0.012085,0.028259,-0.031250,-0.007812,0.003906
17526923000,0.999390,-0.015747,0.012085,0.028259,0.003906,-0.007812,0.003906
17543569000,0.999390,-0.015747,0.012085,0.028259,0.003906,-0.007812,0.003906
17563986000,0.999390,-0.015747,0.012085,0.028259,0.003906,-0.007812,0.003906
17583685000,0.999390,-0.015747,0.012085,0.028259,0.003906,0.027344,0.042969
17610809000,0.999390,-0.015747,0.012085,0.028259,0.003906,-0.007812,0.003906
17623978000,0.999390,-0.015747,0.012085,0.028259,0.003906,-0.007812,0.003906
17645229000,0.999390,-0.015747,0.012085,0.028259,0.003906,0.027344,0.003906
17673809000,0.999390,-0.015747,0.012085,0.028259,0.003906,-0.015625,0.003906
17683557000,0.999390,-0.015747,0.012085,0.028259,0.003906,-0.015625,-0.035156
17704114000,0.999390,-0.015747,0.012085,0.028259,0.003906,-0.015625,0.003906
17723233000,0.999390,-0.015747,0.012085,0.028259,0.003906,-0.015625,0.003906
17744692000,0.999390,-0.015747,0.012085,0.028259,0.003906,-0.015625,0.003906
17770470000,0.999390,-0.015747,0.012085,0.028259,-0.031250,-0.015625,0.003906
17783581000,0.999390,-0.015747,0.012085,0.028259,0.003906,-0.007812,0.003906
17805285000,0.999390,-0.015747,0.012085,0.028259,0.003906,-0.007812,0.003906
17823614000,0.999390,-0.015747,0.012085,0.028259,0.003906,-0.007812,0.003906
17846850000,0.999390,-0.015747,0.012085,0.028259,0.003906,-0.007812,0.003906
17862877000,0.999390,-0.015747,0.012085,0.028259,0.003906,-0.007812,0.003906
17882728000,0.999390,-0.015747,0.012085,0.028259,0.003906,-0.007812,0.042969
17903967000,0.999390,-0.015747,0.012085,0.028259,0.003906,0.027344,0.003906
17933246000,0.999390,-0.015747,0.012085,0.028259,-0.031250,-0.007812,0.003906
17948889000,0.999390,-0.015747,0.012085,0.028259,0.003906,-0.007812,0.042969
17962926000,0.999390,-0.015747,0.012085,0.028259,0.003906,-0.007812,0.003906
17982580000,0.999390,-0.015747,0.012085,0.028259,-0.031250,-0.007812,0.003906
18012851000,0.999390,-0.015747,0.012085,0.028259,0.003906,-0.007812,-0.035156
18022407000,0.999390,-0.015747,0.012085,0.028259,0.003906,-0.007812,0.003906
18042698000,0.999390,-0.015747,0.012085,0.028259,0.003906,0.027344,0.003906
18062161000,0.999390,-0.015747,0.012085,0.028259,0.003906,0.027344,0.003906
18089664000,0.999390,-0.015747,0.012085,0.028259,0.003906,-0.015625,0.003906
18102123000,0.999390,-0.015747,0.012085,0.028259,-0.031250,-0.015625,0.003906
18125007000,0.999390,-0.015747,0.012085,0.028259,0.003906,-0.015625,-0.035156
18142370000,0.999390,-0.015747,0.012085,0.028259,0.003906,0.019531,0.003906
18163509000,0.999390,-0.015747,0.012085,0.028259,0.003906,-0.015625,0.003906
18184081000,0.999390,-0.015747,0.012085,0.028259,0.003906,-0.015625,0.003906
18207751000,0.999390,-0.015747,0.012085,0.028259,0.003906,0.019531,0.042969
18221753000,0.999390,-0.015747,0.012085,0.028259,0.003906,-0.015625,0.042969
18241932000,0.999390,-0.015747,0.012085,0.028259,0.003906,-0.015625,0.003906
18272810000,0.999390,-0.015747,0.012085,0.028259,-0.031250,0.019531,0.003906
18281625000,0.999390,-0.015747,0.012085,0.028259,-0.031250,-0.015625,0.003906
18302260000,0.999390,-0.015747,0.012085,0.028259,0.003906,-0.015625,0.042969
18323388000,0.999390,-0.015747,0.012085,0.028259,0.003906,-0.015625,0.003906
18347446000,0.999390,-0.015747,0.012085,0.028198,-0.031250,0.058594,0.042969
18361363000,0.999390,-0.015808,0.012085,0.028137,0.003906,0.019531,0.003906
18381430000,0.999390,-0.015747,0.012085,0.028076,-0.070312,-0.007812,-0.035156
18411810000,0.999390,-0.015747,0.012085,0.027954,0.003906,-0.007812,0.003906
18421270000,0.999390,-0.015747,0.012085,0.027893,0.003906,0.027344,0.003906
18442483000,0.999390,-0.015747,0.012085,0.027832,-0.031250,-0.007812,0.003906
18471360000,0.999451,-0.015564,0.012024,0.027771,0.003906,-0.007812,0.003906
18481628000,0.999451,-0.015503,0.011963,0.027710,0.082031,0.027344,0.003906
18501371000,0.999451,-0.015320,0.011902,0.027527,0.265625,0.019531,0.003906
18524194000,0.999451,-0.015198,0.011658,0.027039,-0.355469,0.167969,-0.035156
18551621000,0.999451,-0.015503,0.011047,0.026245,0.363281,0.011719,0.003906
18561134000,0.999451,-0.015747,0.010803,0.025940,0.695312,0.011719,0.003906
18581193000,0.999512,-0.016357,0.009827,0.025330,0.058594,0.035156,0.003906
18611400000,0.999573,-0.013306,0.008301,0.023743,-0.179688,0.242188,0.226562
18621108000,0.999634,-0.011536,0.007629,0.023071,0.140625,0.105469,0.148438
18641371000,0.999695,-0.010498,0.005859,0.022400,1.113281,-0.496094,0.261719
18670919000,0.999512,-0.013855,0.005432,0.026611,-1.644531,0.562500,-0.542969
18688507000,0.999512,-0.013062,0.005981,0.028076,-1.214844,0.296875,0.609375
18700648000,0.999390,-0.013977,0.007263,0.030457,0.539062,0.457031,0.261719
18721096000,0.999390,-0.013855,0.008484,0.030151,-0.710938,0.617188,0.109375
18751901000,0.999390,-0.014893,0.011597,0.029602,0.109375,0.335938,0.117188
18761230000,0.999390,-0.014465,0.011414,0.029297,-0.554688,0.542969,0.269531
18780475000,0.999390,-0.014587,0.010986,0.028809,-0.285156,0.167969,0.347656
18800332000,0.999451,-0.014771,0.011597,0.028198,0.242188,0.042969,0.156250
18826026000,0.999451,-0.014526,0.011047,0.028015,-0.101562,-0.031250,0.156250
18840199000,0.999451,-0.014404,0.011169,0.027649,-0.117188,-0.261719,-0.074219
18870240000,0.999451,-0.014465,0.011169,0.027100,-0.648438,0.121094,0.195312
18879923000,0.999451,-0.014587,0.011230,0.026917,-0.273438,0.042969,-0.113281
18900555000,0.999451,-0.014282,0.011169,0.026672,-0.035156,-0.101562,-0.035156
18933173000,0.999512,-0.014282,0.011719,0.026367,-0.109375,-0.101562,-0.074219
18940633000,0.999451,-0.014771,0.011963,0.026245,-0.101562,-0.187500,0.195312
18960250000,0.999451,-0.014954,0.012146,0.026001,0.289062,-0.023438,0.042969
18981240000,0.999451,-0.015686,0.012573,0.025818,0.105469,0.058594,0.042969
18999667000,0.999451,-0.015320,0.012207,0.025574,0.304688,-0.007812,-0.496094
19020006000,0.999512,-0.015625,0.012390,0.025269,0.027344,0.019531,0.042969
19040205000,0.999512,-0.015686,0.012329,0.025085,0.027344,-0.007812,0.003906
19060051000,0.999512,-0.015686,0.012329,0.024841,-0.164062,-0.125000,0.003906
19079809000,0.999512,-0.015198,0.012329,0.024475,-0.125000,-0.085938,-0.152344
19099880000,0.999512,-0.016235,0.011353,0.024048,-0.593750,0.410156,0.195312
19119909000,0.999512,-0.015198,0.010681,0.023865,-0.082031,-0.316406,0.187500
19150074000,0.999512,-0.017395,0.010864,0.023499,-0.425781,0.015625,-0.152344
19159885000,0.999512,-0.017334,0.010864,0.023376,-0.195312,-0.093750,0.003906
19179518000,0.999512,-0.017212,0.010681,0.023315,-0.234375,-0.125000,-0.074219
19200069000,0.999512,-0.017578,0.010864,0.023132,-0.347656,0.105469,-0.035156
19219701000,0.999512,-0.017822,0.011353,0.023254,-0.562500,-0.382812,-0.152344
19249970000,0.999512,-0.015198,0.012512,0.023376,-0.308594,-0.597656,-0.343750
19259600000,0.999512,-0.015320,0.012329,0.023438,-0.875000,0.980469,0.117188
19279590000,0.999512,-0.015564,0.012451,0.023315,-0.109375,0.242188,0.308594
19299376000,0.999512,-0.015381,0.012329,0.023254,-0.187500,-0.054688,-0.035156
19328828000,0.999512,-0.015320,0.012390,0.023193,0.121094,-0.062500,-0.035156
19347626000,0.999512,-0.015198,0.012390,0.023132,0.234375,-0.101562,-0.035156
19359178000,0.999512,-0.015259,0.012390,0.023010,0.195312,0.050781,0.156250
19379279000,0.999512,-0.015381,0.012512,0.022888,0.156250,0.089844,0.042969
19401374000,0.999573,-0.015503,0.012512,0.022766,0.156250,0.011719,0.078125
19418912000,0.999573,-0.015686,0.012573,0.022583,-0.070312,-0.140625,0.078125
19439105000,0.999573,-0.015503,0.012634,0.022461,0.042969,-0.093750,0.117188
19459371000,0.999573,-0.015808,0.012695,0.022217,-0.226562,0.019531,0.156250
19488562000,0.999573,-0.016113,0.012756,0.022095,-0.218750,0.019531,0.117188
19498877000,0.999512,-0.016479,0.012817,0.021973,-0.218750,0.144531,0.078125
19519236000,0.999512,-0.016968,0.012817,0.021790,-0.253906,0.000000,-0.187500
19539170000,0.999512,-0.017517,0.012695,0.021667,-0.640625,-0.023438,0.003906
19568791000,0.999512,-0.017578,0.012817,0.021606,-0.667969,-0.054688,-0.074219
19578523000,0.999512,-0.017578,0.012817,0.021606,-0.632812,-0.015625,0.042969
19598985000,0.999512,-0.017456,0.012817,0.021545,-0.054688,-0.015625,0.003906
19619056000,0.999512,-0.017334,0.012878,0.021545,-0.054688,-0.015625,0.003906
19648325000,0.999512,-0.017273,0.012878,0.021545,-0.054688,-0.023438,0.003906
19658245000,0.999512,-0.017273,0.012878,0.021545,-0.054688,0.015625,0.003906
19679128000,0.999512,-0.017212,0.012878,0.021545,-0.019531,0.015625,0.003906
19699813000,0.999512,-0.017212,0.012878,0.021606,-0.054688,0.015625,0.003906
19728244000,0.999512,-0.017273,0.012756,0.021545,0.218750,0.015625,0.003906
19737704000,0.999512,-0.017334,0.012756,0.021545,0.066406,0.015625,0.003906
19758443000,0.999512,-0.017395,0.012756,0.021545,-0.046875,-0.023438,-0.035156
19788032000,0.999512,-0.017334,0.012756,0.021545,-0.046875,-0.023438,0.003906
19798043000,0.999512,-0.017273,0.012756,0.021606,-0.011719,0.015625,0.003906
19818413000,0.999512,-0.017212,0.012817,0.021545,0.027344,0.015625,0.042969
19847949000,0.999512,-0.017151,0.012817,0.021545,-0.046875,-0.023438,0.003906
19857364000,0.999512,-0.017151,0.012817,0.021545,-0.046875,-0.023438,0.003906
19887283000,0.999512,-0.017090,0.012817,0.021545,-0.039062,0.015625,0.003906
19908376000,0.999512,-0.017090,0.012817,0.021545,-0.039062,-0.023438,0.003906
19917607000,0.999512,-0.017090,0.012817,0.021545,-0.039062,0.015625,0.003906
19938406000,0.999512,-0.017029,0.012817,0.021545,-0.007812,0.007812,-0.003906
19958557000,0.999512,-0.017029,0.012817,0.021545,-0.007812,-0.031250,-0.003906
19978111000,0.999512,-0.017029,0.012878,0.021545,-0.007812,0.007812,-0.003906
19998392000,0.999512,-0.016968,0.012878,0.021545,0.027344,0.007812,-0.042969
20018418000,0.999512,-0.016968,0.012878,0.021606,-0.046875,0.007812,-0.042969
20038397000,0.999512,-0.016907,0.012878,0.021606,-0.007812,-0.031250,-0.003906
20058115000,0.999512,-0.016846,0.012878,0.021606,0.027344,0.007812,-0.003906
20092184000,0.999512,-0.016846,0.012939,0.021606,-0.007812,0.007812,0.003906
20097606000,0.999512,-0.016785,0.012939,0.021606,-0.007812,0.007812,0.003906
20126853000,0.999512,-0.016785,0.012939,0.021606,0.027344,0.007812,0.003906
20137203000,0.999573,-0.016724,0.012939,0.021606,-0.007812,0.007812,0.003906
20158452000,0.999512,-0.016785,0.012939,0.021606,-0.007812,0.007812,0.003906
20179225000,0.999512,-0.016724,0.012939,0.021606,-0.007812,0.007812,0.003906
20207352000,0.999512,-0.016785,0.012939,0.021606,-0.007812,-0.031250,0.003906
20221886000,0.999512,-0.016724,0.012939,0.021606,-0.007812,0.007812,0.003906
20238271000,0.999512,-0.016724,0.013000,0.021606,-0.007812,0.007812,0.003906
20267118000,0.999512,-0.016785,0.012939,0.021606,-0.007812,0.007812,0.003906
20286931000,0.999512,-0.016785,0.012939,0.021606,0.027344,0.007812,0.003906
20302274000,0.999512,-0.016785,0.012939,0.021606,-0.007812,0.007812,0.042969
20329473000,0.999512,-0.016785,0.013000,0.021667,-0.007812,0.007812,-0.035156
20337180000,0.999512,-0.016785,0.013000,0.021667,-0.007812,0.007812,0.003906
20367423000,0.999512,-0.016785,0.013000,0.021667,-0.007812,0.007812,0.003906
20386082000,0.999512,-0.016785,0.013000,0.021667,0.027344,0.007812,-0.035156
20397153000,0.999512,-0.016785,0.013000,0.021667,-0.007812,0.007812,0.003906
20426150000,0.999512,-0.016785,0.013000,0.021667,-0.007812,0.042969,0.003906
20446913000,0.999512,-0.016785,0.013000,0.021667,-0.007812,0.007812,0.003906
20466179000,0.999512,-0.016785,0.013000,0.021667,-0.007812,0.007812,0.003906
20486576000,0.999512,-0.016785,0.013000,0.021667,-0.007812,0.007812,-0.035156
20511622000,0.999512,-0.016785,0.013000,0.021606,0.027344,0.007812,0.003906
20526252000,0.999512,-0.016785,0.013000,0.021606,0.027344,0.007812,0.003906
20546422000,0.999512,-0.016846,0.013000,0.021606,-0.007812,0.007812,0.003906
20565417000,0.999512,-0.016846,0.013000,0.021667,-0.007812,0.007812,0.003906
20590220000,0.999512,-0.016846,0.013000,0.021667,-0.007812,0.007812,-0.035156
20605626000,0.999512,-0.016846,0.013000,0.021606,-0.007812,0.007812,0.003906
20625821000,0.999512,-0.016846,0.013000,0.021606,-0.007812,0.007812,0.003906
20645921000,0.999512,-0.016846,0.013000,0.021606,0.027344,0.007812,0.003906
20673895000,0.999512,-0.016846,0.013000,0.021606,-0.007812,0.007812,0.003906
20685728000,0.999512,-0.016846,0.013000,0.021606,-0.007812,0.007812,0.003906
20705611000,0.999512,-0.016907,0.013000,0.021606,-0.007812,0.007812,0.003906
20724721000,0.999512,-0.016846,0.013000,0.021606,-0.007812,0.007812,0.003906
20746434000,0.999512,-0.016907,0.013000,0.021606,-0.007812,0.000000,-0.035156
20765588000,0.999512,-0.016907,0.013000,0.021606,-0.007812,0.000000,0.003906
20785034000,0.999512,-0.016846,0.013000,0.021606,-0.007812,0.000000,0.003906
20810886000,0.999512,-0.016846,0.013000,0.021606,0.027344,0.000000,-0.035156
20825275000,0.999512,-0.016846,0.013000,0.021606,-0.007812,0.000000,-0.035156
20844989000,0.999512,-0.016846,0.013000,0.021606,-0.007812,0.000000,0.003906
20864993000,0.999512,-0.016846,0.013000,0.021606,-0.007812,0.000000,0.003906
20886119000,0.999512,-0.016846,0.013000,0.021606,-0.007812,0.000000,-0.035156
20907381000,0.999512,-0.016846,0.013062,0.021606,-0.007812,0.000000,0.003906
20924943000,0.999512,-0.016785,0.013000,0.021606,-0.046875,0.000000,0.003906
20944725000,0.999512,-0.016846,0.013000,0.021606,0.000000,0.000000,0.003906
20964956000,0.999512,-0.016785,0.013062,0.021606,-0.039062,0.000000,0.003906
20987585000,0.999512,-0.016785,0.013000,0.021606,0.035156,0.000000,0.003906
21009803000,0.999512,-0.016724,0.013062,0.021606,0.035156,0.000000,0.003906
21025034000,0.999512,-0.016724,0.013062,0.021606,0.035156,0.000000,0.003906
21044875000,0.999512,-0.016724,0.013062,0.021606,-0.007812,-0.007812,0.003906
21064451000,0.999512,-0.016785,0.013062,0.021606,-0.007812,0.000000,0.003906
21089923000,0.999512,-0.016785,0.013062,0.021606,0.027344,0.000000,0.003906
21104466000,0.999512,-0.016785,0.013062,0.021606,0.027344,0.000000,0.003906
21124453000,0.999512,-0.016785,0.013000,0.021606,0.027344,0.000000,0.003906
21143991000,0.999512,-0.016724,0.013000,0.021606,-0.007812,0.000000,0.003906
21174267000,0.999512,-0.016724,0.013000,0.021606,0.027344,-0.007812,0.003906
21191356000,0.999512,-0.016724,0.013000,0.021606,0.027344,-0.007812,-0.035156
21204224000,0.999573,-0.016724,0.013000,0.021606,-0.007812,-0.007812,0.003906
21224034000,0.999573,-0.016663,0.013000,0.021606,-0.007812,-0.007812,0.003906
21246404000,0.999573,-0.016663,0.013000,0.021606,0.027344,-0.007812,0.003906
21264275000,0.999573,-0.016663,0.013000,0.021606,-0.007812,-0.007812,0.003906
21286424000,0.999573,-0.016663,0.013000,0.021545,-0.007812,-0.007812,0.042969
21304393000,0.999573,-0.016663,0.013000,0.021545,0.027344,-0.007812,0.003906
21323668000,0.999573,-0.016663,0.013000,0.021545,-0.007812,-0.007812,0.003906
21343923000,0.999573,-0.016663,0.012939,0.021606,-0.007812,-0.007812,0.003906
21363658000,0.999573,-0.016602,0.012939,0.021606,-0.007812,-0.046875,0.003906
21387528000,0.999573,-0.016602,0.012939,0.021606,0.027344,-0.007812,0.003906
21403362000,0.999573,-0.016663,0.012939,0.021545,0.027344,-0.007812,-0.035156
21423646000,0.999573,-0.016663,0.012939,0.021606,-0.007812,-0.007812,0.042969
21445907000,0.999573,-0.016663,0.012939,0.021606,-0.007812,-0.007812,0.003906
21462976000,0.999573,-0.016724,0.012878,0.021606,-0.007812,-0.007812,-0.035156
21483219000,0.999573,-0.016724,0.012878,0.021545,-0.007812,-0.007812,0.003906
21503203000,0.999573,-0.016724,0.012878,0.021606,-0.007812,-0.007812,0.003906
21526893000,0.999573,-0.016724,0.012939,0.021606,-0.007812,-0.007812,0.003906
21543358000,0.999573,-0.016724,0.012939,0.021606,-0.007812,-0.007812,0.003906
21563208000,0.999573,-0.016724,0.012939,0.021606,-0.007812,-0.007812,0.003906
21583187000,0.999573,-0.016724,0.012939,0.021545,-0.007812,-0.007812,0.003906
21612746000,0.999573,-0.016724,0.012939,0.021545,-0.007812,-0.007812,0.003906
21629731000,0.999573,-0.016724,0.012939,0.021545,-0.007812,-0.007812,0.003906
21642881000,0.999573,-0.016724,0.012939,0.021606,-0.007812,-0.007812,0.003906
21662583000,0.999573,-0.016724,0.013000,0.021606,-0.007812,-0.007812,0.003906
21684227000,0.999573,-0.016724,0.013000,0.021606,-0.007812,-0.007812,0.003906
21709838000,0.999573,-0.016724,0.013000,0.021606,-0.007812,-0.007812,0.003906
21722911000,0.999573,-0.016663,0.013000,0.021606,-0.007812,-0.007812,0.003906
21743130000,0.999573,-0.016724,0.012939,0.021606,-0.007812,-0.007812,0.003906
21769047000,0.999573,-0.016724,0.012939,0.021606,-0.007812,-0.007812,-0.035156
21782608000,0.999573,-0.016724,0.012939,0.021606,-0.007812,-0.007812,-0.035156
21802531000,0.999573,-0.016724,0.012939,0.021606,0.027344,-0.007812,0.003906
21823652000,0.999573,-0.016724,0.012939,0.021606,0.027344,-0.007812,0.003906
21849255000,0.999573,-0.016663,0.012939,0.021606,0.027344,-0.007812,0.003906
21862623000,0.999573,-0.016663,0.012939,0.021606,-0.007812,-0.007812,0.003906
21882824000,0.999573,-0.016663,0.013000,0.021545,0.027344,0.027344,-0.035156
21902916000,0.999573,-0.016663,0.013000,0.021606,0.027344,-0.007812,0.003906
21922044000,0.999573,-0.016602,0.013000,0.021606,-0.007812,-0.007812,0.003906
21942391000,0.999573,-0.016602,0.013000,0.021545,-0.007812,-0.007812,0.003906
21971778000,0.999573,-0.016663,0.013000,0.021545,-0.007812,-0.007812,0.003906
21987477000,0.999573,-0.016663,0.013000,0.021545,-0.007812,-0.007812,0.003906
22002206000,0.999573,-0.016663,0.013000,0.021545,-0.007812,-0.007812,0.003906
22021976000,0.999573,-0.016663,0.013000,0.021545,-0.007812,-0.007812,0.003906
22041645000,0.999573,-0.016663,0.013000,0.021545,0.027344,-0.007812,0.003906
22062056000,0.999573,-0.016602,0.013000,0.021484,-0.007812,-0.007812,0.003906
22082238000,0.999573,-0.016663,0.013000,0.021545,-0.007812,-0.007812,0.003906
22102641000,0.999573,-0.016663,0.013000,0.021545,-0.007812,-0.007812,0.003906
22122189000,0.999573,-0.016663,0.012939,0.021545,-0.007812,-0.007812,0.042969
22141258000,0.999573,-0.016663,0.012939,0.021484,-0.007812,-0.007812,0.003906
22162805000,0.999573,-0.016602,0.012939,0.021545,-0.007812,-0.007812,0.003906
22187047000,0.999573,-0.016602,0.012939,0.021545,-0.007812,-0.007812,0.003906
22212679000,0.999573,-0.016602,0.012939,0.021545,-0.007812,-0.007812,0.003906
22221289000,0.999573,-0.016663,0.012939,0.021484,-0.007812,-0.007812,-0.035156
22242878000,0.999573,-0.016602,0.012939,0.021484,0.027344,-0.007812,0.042969
22266603000,0.999573,-0.016602,0.012939,0.021484,-0.007812,-0.007812,0.003906
22281241000,0.999573,-0.016602,0.012939,0.021484,-0.007812,-0.007812,0.003906
22301276000,0.999573,-0.016602,0.012939,0.021484,-0.007812,-0.007812,0.042969
22323310000,0.999573,-0.016541,0.012939,0.021484,-0.007812,-0.046875,0.003906
22347905000,0.999573,-0.016541,0.012939,0.021484,-0.007812,-0.046875,0.003906
22361155000,0.999573,-0.016479,0.012939,0.021484,0.027344,-0.007812,0.003906
22380608000,0.999573,-0.016479,0.012939,0.021484,0.027344,-0.039062,0.003906
22413040000,0.999573,-0.016479,0.012939,0.021484,-0.007812,0.000000,0.003906
22426221000,0.999573,-0.016479,0.012878,0.021484,-0.007812,0.000000,0.003906
22440809000,0.999573,-0.016541,0.012878,0.021423,-0.007812,0.000000,-0.035156
22461008000,0.999573,-0.016479,0.012878,0.021423,0.027344,0.000000,0.003906
22480190000,0.999573,-0.016479,0.012878,0.021240,0.027344,0.000000,0.003906
22501921000,0.999573,-0.016479,0.012939,0.020813,0.066406,0.035156,-0.035156
22522533000,0.999573,-0.016418,0.013000,0.020325,0.097656,0.035156,0.003906
22550826000,0.999573,-0.016479,0.013062,0.019714,0.128906,-0.007812,0.003906
22560330000,0.999573,-0.016541,0.013123,0.019653,0.203125,-0.085938,0.042969
22581156000,0.999573,-0.016663,0.013123,0.019958,-0.148438,-0.078125,-0.074219
22601593000,0.999573,-0.016968,0.013245,0.020325,-0.070312,-0.070312,0.003906
22628354000,0.999573,-0.017700,0.013367,0.020569,0.113281,0.050781,-0.074219
22640214000,0.999512,-0.019104,0.013428,0.020569,0.496094,0.121094,0.195312
22660605000,0.999512,-0.019348,0.013733,0.020325,0.417969,-0.230469,-0.113281
22690344000,0.999512,-0.016357,0.015076,0.020630,0.312500,-0.636719,0.003906
22700024000,0.999512,-0.016541,0.014954,0.020935,0.281250,-0.285156,-0.378906
22720112000,0.999512,-0.015930,0.014343,0.021667,0.234375,-0.031250,0.117188
22740001000,0.999512,-0.015930,0.016052,0.021912,0.257812,0.191406,-0.074219
22760654000,0.999512,-0.016357,0.017883,0.020874,-1.796875,0.191406,0.843750
22789786000,0.999451,-0.015869,0.021362,0.019165,0.910156,-0.546875,-0.074219
22804883000,0.999451,-0.015320,0.021423,0.019592,0.894531,1.093750,-0.417969
22819878000,0.999451,-0.015259,0.021057,0.021301,-1.257812,-0.429688,-0.304688
22840282000,0.999451,-0.014587,0.019897,0.021240,-0.160156,0.066406,0.386719
22859947000,0.999512,-0.014343,0.018616,0.021606,-0.574219,0.050781,-0.417969
22880303000,0.999512,-0.014648,0.018127,0.021729,-0.714844,0.160156,0.539062
22904342000,0.999512,-0.014587,0.017151,0.021973,0.042969,0.128906,-0.179688
22919904000,0.999512,-0.014832,0.016968,0.021912,-0.363281,-0.015625,0.011719
22939121000,0.999512,-0.014832,0.017090,0.021790,0.058594,0.058594,0.203125
22960957000,0.999512,-0.014893,0.016907,0.021545,-0.093750,0.019531,-0.371094
22985168000,0.999512,-0.014954,0.016663,0.021240,-0.054688,-0.007812,-0.296875
22999704000,0.999512,-0.015015,0.016418,0.020996,-0.214844,-0.007812,-0.066406
23019579000,0.999512,-0.015320,0.016174,0.020813,0.003906,0.066406,-0.066406
23044261000,0.999573,-0.015259,0.015808,0.020630,-0.070312,0.000000,-0.144531
23059248000,0.999573,-0.015198,0.015320,0.020386,0.265625,0.144531,-0.066406
23078992000,0.999573,-0.015015,0.014832,0.020203,-0.011719,0.027344,0.085938
23099412000,0.999573,-0.015137,0.014038,0.020203,-0.101562,-0.125000,0.085938
23128505000,0.999573,-0.015320,0.013611,0.020142,-0.539062,0.144531,-0.179688
23144330000,0.999573,-0.015259,0.013489,0.020142,-0.656250,0.027344,0.050781
23159204000,0.999573,-0.015320,0.013367,0.020203,-0.394531,-0.046875,0.050781
23179232000,0.999573,-0.015503,0.013306,0.020142,-0.277344,-0.085938,0.355469
23199105000,0.999573,-0.015198,0.013123,0.020203,0.027344,0.000000,-0.105469
23219124000,0.999573,-0.015137,0.013062,0.020203,0.066406,0.105469,-0.027344
23248295000,0.999573,-0.014893,0.012817,0.020264,0.210938,-0.085938,-0.144531
23258843000,0.999573,-0.015198,0.012695,0.020264,0.132812,0.066406,0.164062
23278875000,0.999573,-0.016663,0.013000,0.020203,-0.093750,0.183594,0.394531
23298972000,0.999573,-0.016907,0.013611,0.019958,-0.234375,-0.316406,0.164062
23328715000,0.999573,-0.017273,0.013123,0.019714,-0.253906,0.105469,-0.105469
23348185000,0.999573,-0.017029,0.013123,0.019714,0.273438,0.039062,0.085938
23358221000,0.999573,-0.017029,0.012939,0.019775,-0.457031,-0.007812,-0.105469
23378371000,0.999573,-0.016785,0.012573,0.019836,-0.464844,-0.007812,-0.066406
23399111000,0.999573,-0.016357,0.012268,0.020081,-0.472656,0.058594,0.242188
23427693000,0.999573,-0.016052,0.012207,0.020325,-0.480469,0.234375,-0.066406
23443849000,0.999573,-0.015930,0.012146,0.020325,-0.472656,0.121094,0.011719
23458885000,0.999573,-0.015625,0.012024,0.020325,-0.277344,0.042969,-0.027344
23487816000,0.999634,-0.015015,0.011780,0.020508,0.363281,-0.046875,0.085938
23497575000,0.999634,-0.014954,0.011780,0.020569,0.210938,-0.015625,0.050781
23518865000,0.999573,-0.014893,0.011902,0.020752,0.402344,-0.015625,-0.066406
23547428000,0.999573,-0.014404,0.011902,0.021179,0.058594,-0.214844,-0.179688
23557841000,0.999573,-0.014587,0.011902,0.021362,-0.125000,-0.023438,0.085938
23578163000,0.999573,-0.014587,0.011963,0.021790,-0.164062,0.128906,0.050781
23598645000,0.999573,-0.014465,0.011841,0.022095,-0.664062,0.050781,0.050781
23618843000,0.999573,-0.014587,0.011902,0.022278,-0.699219,-0.023438,-0.144531
23638356000,0.999573,-0.014587,0.011902,0.022339,-0.777344,0.050781,-0.105469
23658692000,0.999573,-0.014648,0.011841,0.022339,-0.011719,-0.023438,0.011719
23686930000,0.999573,-0.014648,0.011841,0.022278,-0.042969,-0.023438,0.011719
23697281000,0.999573,-0.014648,0.011902,0.022278,-0.078125,0.011719,-0.027344
23718413000,0.999573,-0.014587,0.011902,0.022278,-0.078125,0.011719,0.011719
23738658000,0.999573,-0.014587,0.011902,0.022278,-0.234375,0.011719,0.050781
23766669000,0.999573,-0.014587,0.011902,0.022278,-0.003906,0.011719,0.011719
23777305000,0.999573,-0.014587,0.011902,0.022278,-0.042969,-0.023438,0.011719
23807615000,0.999573,-0.014587,0.011902,0.022278,-0.035156,0.011719,0.011719
23817638000,0.999573,-0.014587,0.011841,0.022278,-0.070312,-0.023438,0.011719
23856974000,0.999573,-0.014587,0.011902,0.022278,-0.035156,0.011719,0.011719
23866245000,0.999573,-0.014526,0.011902,0.022278,-0.070312,-0.023438,0.011719
23887266000,0.999573,-0.014526,0.011902,0.022278,-0.070312,-0.023438,0.011719
23897414000,0.999573,-0.014587,0.011902,0.022278,-0.070312,-0.023438,-0.027344
23926565000,0.999573,-0.014587,0.011902,0.022278,-0.035156,0.011719,0.011719
23937185000,0.999573,-0.014587,0.011902,0.022278,-0.070312,0.011719,0.011719
23966840000,0.999573,-0.014587,0.011902,0.022278,-0.109375,-0.023438,0.050781
23986494000,0.999573,-0.014587,0.011902,0.022278,-0.046875,0.019531,-0.003906
23997269000,0.999573,-0.014587,0.011963,0.022217,0.144531,-0.015625,-0.003906
24026456000,0.999573,-0.014648,0.011963,0.022217,0.058594,0.019531,-0.003906
24046812000,0.999573,-0.014587,0.011902,0.022217,-0.015625,-0.015625,-0.003906
24066730000,0.999573,-0.014587,0.011902,0.022217,-0.015625,-0.015625,-0.003906
24077300000,0.999573,-0.014526,0.011963,0.022156,-0.023438,0.019531,0.035156
24106449000,0.999573,-0.014526,0.011963,0.022217,0.011719,-0.015625,-0.003906
24125941000,0.999573,-0.014526,0.011963,0.022156,0.011719,0.019531,0.035156
24145760000,0.999573,-0.014526,0.011963,0.022217,-0.023438,0.011719,0.035156
24176100000,0.999573,-0.014526,0.011963,0.022217,0.011719,0.011719,0.035156
24189018000,0.999573,-0.014526,0.011963,0.022217,0.011719,-0.023438,-0.003906
24205969000,0.999573,-0.014587,0.011963,0.022217,0.011719,0.019531,-0.042969
24226202000,0.999573,-0.014587,0.011963,0.022217,0.011719,0.019531,-0.003906
24245432000,0.999573,-0.014526,0.011963,0.022217,0.011719,0.019531,-0.003906
24276115000,0.999573,-0.014587,0.011963,0.022217,0.003906,-0.015625,-0.003906
24292221000,0.999573,-0.014526,0.011963,0.022217,0.003906,0.019531,-0.003906
24306209000,0.999573,-0.014526,0.011902,0.022217,-0.031250,-0.015625,-0.003906
24325499000,0.999573,-0.014587,0.011963,0.022217,-0.031250,-0.015625,-0.003906
24345415000,0.999573,-0.014587,0.011902,0.022217,-0.031250,-0.015625,-0.003906
24369696000,0.999573,-0.014587,0.011902,0.022217,0.003906,0.019531,-0.003906
24385263000,0.999573,-0.014587,0.011902,0.022278,-0.031250,0.019531,-0.003906
24405066000,0.999573,-0.014587,0.011902,0.022278,0.003906,-0.015625,-0.003906
24424959000,0.999573,-0.014587,0.011963,0.022278,-0.031250,0.011719,-0.003906
24445170000,0.999573,-0.014526,0.011963,0.022278,0.003906,-0.023438,-0.003906
24475041000,0.999573,-0.014587,0.011963,0.022278,-0.031250,0.011719,-0.035156
24491780000,0.999573,-0.014587,0.011963,0.022278,0.003906,0.011719,0.003906
24504727000,0.999573,-0.014587,0.011963,0.022278,0.003906,-0.023438,0.003906
24525469000,0.999573,-0.014587,0.011963,0.022278,0.011719,-0.023438,0.003906
24545110000,0.999573,-0.014587,0.011963,0.022278,0.011719,-0.023438,0.003906
24573502000,0.999573,-0.014587,0.011963,0.022278,0.011719,0.011719,0.003906
24584445000,0.999573,-0.014587,0.011902,0.022278,0.011719,-0.023438,0.042969
24604853000,0.999573,-0.014587,0.011902,0.022278,-0.023438,-0.023438,0.003906
24635183000,0.999573,-0.014587,0.011902,0.022339,-0.023438,0.011719,0.003906
24651843000,0.999573,-0.014526,0.011902,0.022339,0.011719,0.011719,0.042969
24664766000,0.999573,-0.014526,0.011963,0.022339,0.011719,0.011719,0.003906
24684351000,0.999573,-0.014526,0.011963,0.022339,0.011719,0.003906,0.042969
24704741000,0.999573,-0.014526,0.011963,0.022339,0.011719,0.003906,0.003906
24726556000,0.999573,-0.014465,0.011963,0.022339,-0.031250,-0.031250,0.003906
24750587000,0.999573,-0.014465,0.011963,0.022339,0.003906,-0.031250,0.003906
24763900000,0.999573,-0.014465,0.011963,0.022339,-0.031250,0.003906,0.003906
24783968000,0.999573,-0.014465,0.011963,0.022339,0.003906,-0.031250,0.003906
24814079000,0.999573,-0.014526,0.011963,0.022339,0.003906,0.003906,0.003906
24830448000,0.999573,-0.014465,0.011963,0.022339,0.003906,0.003906,0.042969
24843733000,0.999573,-0.014465,0.011963,0.022339,-0.031250,-0.031250,0.003906
24864580000,0.999573,-0.014465,0.011963,0.022339,0.003906,0.003906,0.003906
24884805000,0.999573,-0.014465,0.011963,0.022339,0.003906,0.003906,0.003906
24909121000,0.999573,-0.014465,0.011963,0.022339,-0.031250,0.003906,0.003906
24924120000,0.999573,-0.014404,0.011963,0.022339,-0.031250,0.003906,0.003906
24943712000,0.999573,-0.014404,0.012024,0.022339,-0.023438,-0.031250,0.003906
24963928000,0.999573,-0.014404,0.011963,0.022339,0.011719,0.003906,0.003906
24993717000,0.999573,-0.014404,0.011963,0.022339,-0.023438,0.003906,0.003906
25003401000,0.999573,-0.014404,0.011963,0.022339,0.011719,0.003906,0.003906
25023471000,0.999573,-0.014404,0.011963,0.022339,0.011719,0.003906,0.003906
25044297000,0.999573,-0.014465,0.011963,0.022339,-0.023438,0.003906,0.003906
25069253000,0.999573,-0.014465,0.011963,0.022339,-0.023438,-0.031250,0.042969
25083542000,0.999573,-0.014465,0.011963,0.022339,-0.023438,-0.031250,0.003906
25103163000,0.999573,-0.014404,0.011963,0.022339,0.011719,-0.031250,0.003906
25133629000,0.999573,-0.014404,0.011963,0.022339,0.011719,-0.031250,0.003906
25148744000,0.999573,-0.014404,0.011963,0.022339,0.011719,-0.031250,0.003906
25163114000,0.999573,-0.014465,0.011963,0.022339,0.011719,0.003906,-0.035156
25183204000,0.999573,-0.014465,0.011963,0.022339,0.011719,0.011719,0.003906
25203312000,0.999573,-0.014465,0.011963,0.022339,0.011719,0.011719,0.003906
25230931000,0.999573,-0.014465,0.011902,0.022339,0.011719,-0.031250,0.003906
25243121000,0.999573,-0.014465,0.011902,0.022339,0.050781,0.003906,0.003906
25263432000,0.999573,-0.014465,0.011902,0.022339,-0.023438,0.003906,0.003906
25282319000,0.999573,-0.014465,0.011902,0.022339,0.011719,0.003906,0.003906
25303758000,0.999573,-0.014465,0.011902,0.022339,0.011719,-0.031250,0.003906
25326202000,0.999573,-0.014465,0.011902,0.022339,-0.023438,-0.031250,0.003906
25343121000,0.999573,-0.014526,0.011963,0.022339,-0.023438,-0.031250,-0.035156
25362556000,0.999573,-0.014526,0.011963,0.022339,-0.023438,-0.031250,0.003906
25388390000,0.999573,-0.014526,0.011963,0.022339,0.011719,-0.031250,0.003906
25402169000,0.999573,-0.014465,0.011963,0.022339,-0.023438,-0.031250,0.003906
25423084000,0.999573,-0.014465,0.011963,0.022339,0.011719,-0.023438,0.003906
25444408000,0.999573,-0.014465,0.011963,0.022400,0.011719,-0.023438,0.003906
25468290000,0.999573,-0.014465,0.011963,0.022339,0.011719,-0.023438,-0.027344
25482038000,0.999573,-0.014465,0.011963,0.022339,-0.023438,-0.023438,0.050781
25502383000,0.999573,-0.014465,0.011963,0.022400,0.011719,-0.023438,0.011719
25522711000,0.999573,-0.014465,0.011963,0.022339,0.011719,-0.023438,0.011719
25541860000,0.999573,-0.014465,0.011963,0.022339,0.011719,0.011719,0.011719
25562091000,0.999573,-0.014465,0.011963,0.022339,0.011719,-0.023438,0.011719
25583293000,0.999573,-0.014465,0.011963,0.022339,0.011719,0.011719,0.011719
25608276000,0.999573,-0.014465,0.011963,0.022339,0.011719,0.011719,0.011719
25621505000,0.999573,-0.014465,0.011963,0.022339,0.011719,-0.023438,0.011719
25641603000,0.999573,-0.014465,0.011963,0.022339,-0.023438,0.011719,0.011719
25672039000,0.999573,-0.014465,0.011963,0.022339,-0.031250,-0.023438,0.003906
25688878000,0.999573,-0.014465,0.011963,0.022339,0.003906,-0.023438,0.003906
25701661000,0.999573,-0.014465,0.011963,0.022339,0.003906,0.011719,0.003906
25721081000,0.999573,-0.014465,0.011963,0.022339,-0.031250,-0.023438,0.042969
25742343000,0.999573,-0.014465,0.011963,0.022339,0.003906,0.011719,0.003906
25765758000,0.999573,-0.014465,0.011963,0.022339,0.003906,-0.023438,0.003906
25781658000,0.999573,-0.014465,0.011963,0.022339,-0.031250,0.011719,0.003906
25801705000,0.999573,-0.014465,0.011963,0.022339,0.003906,-0.023438,0.003906
25831491000,0.999573,-0.014465,0.011963,0.022339,0.003906,0.011719,0.003906
25847938000,0.999573,-0.014465,0.011963,0.022339,0.003906,0.011719,0.003906
25862215000,0.999573,-0.014465,0.011963,0.022339,0.003906,0.011719,0.003906
25881104000,0.999573,-0.014465,0.011963,0.022339,0.003906,-0.023438,0.003906
25911267000,0.999573,-0.014465,0.011963,0.022339,0.003906,0.011719,0.003906
25920860000,0.999573,-0.014465,0.011963,0.022339,0.003906,0.011719,0.042969
25941070000,0.999573,-0.014465,0.011963,0.022339,0.003906,-0.023438,0.003906
25960797000,0.999573,-0.014465,0.011963,0.022339,-0.031250,0.011719,0.003906
25991538000,0.999573,-0.014465,0.011963,0.022339,0.003906,0.011719,0.003906
26000078000,0.999573,-0.014465,0.011963,0.022339,0.003906,-0.023438,0.003906
26021229000,0.999573,-0.014465,0.011963,0.022339,0.003906,0.011719,0.003906
26040244000,0.999573,-0.014465,0.011963,0.022339,0.003906,-0.023438,0.003906
26061511000,0.999573,-0.014465,0.011963,0.022339,0.003906,0.011719,0.003906
26086018000,0.999573,-0.014465,0.011963,0.022339,-0.031250,-0.023438,0.003906
26101202000,0.999573,-0.014465,0.011963,0.022339,0.042969,-0.023438,0.042969
26121411000,0.999573,-0.014465,0.011963,0.022339,-0.031250,0.011719,0.003906
26150208000,0.999573,-0.014465,0.011963,0.022339,-0.031250,0.011719,0.003906
26166825000,0.999573,-0.014465,0.011963,0.022339,0.003906,0.011719,0.003906
26180022000,0.999573,-0.014465,0.011963,0.022339,-0.031250,-0.023438,0.003906
26202299000,0.999573,-0.014465,0.011963,0.022339,-0.031250,-0.023438,0.003906
26230236000,0.999573,-0.014465,0.011963,0.022339,0.003906,-0.023438,0.003906
26245779000,0.999573,-0.014465,0.011963,0.022339,0.003906,0.011719,0.042969
26259936000,0.999573,-0.014465,0.011963,0.022339,-0.031250,0.011719,0.003906
26280108000,0.999573,-0.014465,0.011963,0.022339,0.003906,-0.023438,0.042969
26309929000,0.999573,-0.014465,0.011963,0.022339,0.003906,0.003906,-0.035156
26325744000,0.999573,-0.014465,0.011963,0.022339,0.003906,-0.031250,0.042969
26339436000,0.999573,-0.014465,0.011963,0.022339,-0.031250,-0.023438,0.003906
26360275000,0.999573,-0.014465,0.011963,0.022339,0.003906,0.011719,0.042969
26380647000,0.999573,-0.014465,0.011963,0.022339,0.003906,-0.023438,0.003906
26409339000,0.999573,-0.014465,0.011963,0.022339,-0.031250,-0.023438,-0.042969
26419671000,0.999573,-0.014465,0.011963,0.022339,-0.031250,0.011719,-0.042969
26439753000,0.999573,-0.014465,0.011963,0.022339,0.003906,-0.023438,-0.003906
26459603000,0.999573,-0.014465,0.011963,0.022339,0.003906,0.011719,-0.003906
26489251000,0.999573,-0.014465,0.011963,0.022339,0.003906,0.011719,-0.003906
26499270000,0.999573,-0.014465,0.011963,0.022339,0.003906,0.011719,-0.042969
26519690000,0.999573,-0.014465,0.011963,0.022339,-0.031250,0.011719,-0.003906
26549376000,0.999573,-0.014465,0.011963,0.022339,0.082031,-0.023438,0.003906
26559404000,0.999573,-0.014404,0.011902,0.022339,0.160156,0.011719,0.003906
26579209000,0.999573,-0.014404,0.011963,0.022400,0.265625,0.011719,0.042969
26599137000,0.999573,-0.014404,0.011963,0.022339,0.257812,0.011719,0.003906
26629522000,0.999573,-0.014771,0.012085,0.022278,0.792969,-0.062500,-0.074219
26638484000,0.999573,-0.014709,0.012207,0.022339,0.640625,-0.101562,0.042969
26659626000,0.999573,-0.015259,0.012329,0.022217,1.101562,0.097656,-0.074219
26679647000,0.999573,-0.015015,0.012329,0.021973,0.210938,-0.093750,0.078125
26708926000,0.999573,-0.014771,0.012085,0.021606,-0.074219,-0.171875,-0.074219
26723872000,0.999573,-0.014954,0.012146,0.021545,0.386719,-0.207031,-0.074219
26739257000,0.999573,-0.014771,0.012024,0.021362,0.066406,-0.015625,-0.226562
26759373000,0.999573,-0.014954,0.012085,0.021362,0.027344,-0.179688,-0.226562
26788841000,0.999573,-0.015137,0.012146,0.021606,-0.164062,-0.207031,0.078125
26798727000,0.999573,-0.015137,0.012146,0.021729,0.277344,-0.093750,0.003906
26820148000,0.999573,-0.015137,0.012268,0.022156,0.203125,0.058594,-0.035156
26839129000,0.999573,-0.015076,0.012268,0.022522,-0.304688,-0.054688,-0.457031
26868529000,0.999573,-0.015076,0.012268,0.023071,-0.339844,-0.054688,0.042969
26878538000,0.999573,-0.014893,0.012024,0.023254,-0.808594,-0.054688,-0.113281
26899055000,0.999512,-0.014893,0.012146,0.023682,-0.695312,0.011719,0.234375
26928595000,0.999512,-0.015076,0.012024,0.024292,-0.777344,0.058594,0.070312
26945116000,0.999512,-0.014771,0.011841,0.024536,-0.855469,0.019531,0.261719
26958683000,0.999512,-0.014954,0.011841,0.024658,-0.433594,0.480469,0.226562
26979011000,0.999512,-0.014954,0.011719,0.024231,-0.511719,0.210938,0.070312
27004723000,0.999512,-0.014954,0.011658,0.023743,0.562500,-0.476562,-0.042969
27018586000,0.999573,-0.014771,0.011597,0.023682,-0.136719,-0.515625,-0.160156
27039044000,0.999512,-0.014832,0.011658,0.023865,0.171875,-0.054688,0.300781
27068204000,0.999512,-0.014771,0.011719,0.023865,-0.480469,-0.015625,0.417969
27087841000,0.999512,-0.015015,0.011658,0.024170,-0.402344,0.019531,-0.042969
27097887000,0.999512,-0.014954,0.011597,0.024353,-1.093750,0.136719,0.226562
27118676000,0.999512,-0.014893,0.011475,0.024780,-0.902344,-0.093750,-0.160156
27138497000,0.999512,-0.014648,0.011353,0.025146,-0.480469,0.136719,0.148438
27167575000,0.999512,-0.014709,0.011353,0.025635,-0.335938,0.058594,-0.074219
27177411000,0.999512,-0.014709,0.011353,0.025818,-0.144531,-0.093750,-0.035156
27198435000,0.999512,-0.014832,0.011292,0.026184,-0.218750,-0.093750,-0.035156
27218387000,0.999451,-0.014893,0.011292,0.026306,-0.488281,0.175781,0.035156
27247373000,0.999451,-0.014893,0.011292,0.026489,-0.218750,-0.015625,-0.042969
27263206000,0.999451,-0.014893,0.011292,0.026550,-0.136719,0.019531,-0.003906
27278823000,0.999451,-0.014709,0.011230,0.026672,0.054688,-0.015625,-0.003906
27307674000,0.999451,-0.014771,0.011230,0.026672,-0.171875,0.019531,-0.003906
27317136000,0.999451,-0.014709,0.011230,0.026672,-0.097656,0.019531,-0.003906
27339221000,0.999451,-0.014648,0.011230,0.026611,0.019531,0.019531,-0.042969
27358442000,0.999451,-0.014771,0.011230,0.026611,-0.136719,-0.015625,-0.003906
27386980000,0.999451,-0.014832,0.011230,0.026611,-0.480469,-0.015625,-0.042969
27402141000,0.999451,-0.014832,0.011230,0.026611,-0.593750,0.019531,-0.003906
27418176000,0.999451,-0.014832,0.011230,0.026611,-0.519531,0.019531,-0.003906
27449237000,0.999451,-0.014832,0.011230,0.026611,-0.136719,0.019531,-0.003906
27466583000,0.999451,-0.014832,0.011230,0.026550,-0.136719,0.019531,-0.003906
27482157000,0.999451,-0.014832,0.011230,0.026550,-0.136719,0.019531,0.035156
27503291000,0.999451,-0.014832,0.011230,0.026550,-0.136719,0.019531,-0.003906
27518131000,0.999451,-0.014832,0.011230,0.026611,-0.136719,0.019531,-0.042969
27546644000,0.999451,-0.014832,0.011230,0.026611,-0.128906,0.019531,0.042969
27566751000,0.999451,-0.014832,0.011230,0.026611,-0.128906,-0.015625,0.003906
27586492000,0.999451,-0.014832,0.011230,0.026611,-0.128906,0.019531,0.003906
27597119000,0.999451,-0.014832,0.011230,0.026611,-0.128906,0.011719,0.003906
27626215000,0.999451,-0.014771,0.011230,0.026611,-0.128906,-0.023438,0.003906
27651096000,0.999451,-0.014771,0.011230,0.026611,-0.128906,0.011719,0.003906
27666867000,0.999451,-0.014771,0.011230,0.026611,-0.128906,0.011719,0.003906
27686207000,0.999451,-0.014771,0.011230,0.026611,-0.128906,0.011719,0.003906
27710923000,0.999451,-0.014771,0.011292,0.026611,-0.121094,0.011719,-0.035156
27726064000,0.999451,-0.014771,0.011292,0.026611,0.066406,0.003906,-0.003906
27745911000,0.999451,-0.014771,0.011292,0.026611,0.066406,0.003906,-0.003906
27769429000,0.999451,-0.014771,0.011230,0.026611,0.027344,0.003906,-0.003906
27791772000,0.999451,-0.014771,0.011230,0.026611,0.027344,0.003906,-0.003906
27806046000,0.999451,-0.014771,0.011292,0.026611,0.019531,0.003906,0.035156
27826409000,0.999451,-0.014771,0.011230,0.026611,0.019531,0.003906,-0.003906
27845807000,0.999451,-0.014771,0.011230,0.026672,0.019531,0.003906,-0.042969
27866549000,0.999451,-0.014771,0.011230,0.026672,0.019531,0.003906,-0.003906
27885945000,0.999451,-0.014771,0.011230,0.026672,0.011719,0.003906,-0.003906
27905819000,0.999451,-0.014771,0.011230,0.026672,0.011719,0.003906,-0.003906
27926022000,0.999451,-0.014771,0.011292,0.026611,0.011719,0.003906,-0.003906
27950933000,0.999451,-0.014709,0.011292,0.026611,0.011719,-0.031250,-0.003906
27965842000,0.999451,-0.014771,0.011230,0.026672,0.011719,0.003906,-0.003906
27985549000,0.999451,-0.014771,0.011230,0.026672,0.003906,0.003906,-0.003906
28005234000,0.999451,-0.014771,0.011230,0.026672,0.003906,-0.031250,-0.003906
28030983000,0.999451,-0.014771,0.011230,0.026672,0.003906,0.003906,-0.003906
28049122000,0.999451,-0.014771,0.011230,0.026672,0.003906,0.003906,-0.003906
28065152000,0.999451,-0.014771,0.011230,0.026611,0.003906,-0.031250,-0.003906
28087754000,0.999451,-0.014771,0.011230,0.026672,0.042969,-0.031250,-0.003906
28105319000,0.999451,-0.014771,0.011230,0.026672,0.003906,0.003906,-0.003906
28125713000,0.999451,-0.014771,0.011292,0.026611,-0.003906,0.003906,-0.003906
28145270000,0.999451,-0.014771,0.011292,0.026611,-0.003906,0.003906,-0.003906
28165162000,0.999451,-0.014771,0.011292,0.026672,-0.003906,-0.031250,-0.003906
28185392000,0.999451,-0.014771,0.011292,0.026672,-0.003906,0.003906,-0.003906
28205256000,0.999451,-0.014771,0.011292,0.026672,-0.003906,0.003906,0.003906
28224645000,0.999451,-0.014771,0.011292,0.026672,-0.003906,0.003906,0.042969
28245381000,0.999451,-0.014771,0.011292,0.026611,-0.003906,0.003906,-0.035156
28264615000,0.999451,-0.014771,0.011292,0.026672,-0.003906,0.003906,0.003906
28285627000,0.999451,-0.014709,0.011292,0.026611,-0.003906,0.003906,0.003906
28304580000,0.999451,-0.014709,0.011292,0.026611,-0.003906,0.003906,0.003906
28324361000,0.999451,-0.014709,0.011292,0.026611,-0.003906,0.003906,0.003906
28344436000,0.999451,-0.014709,0.011292,0.026611,0.035156,0.003906,0.003906
28364978000,0.999451,-0.014709,0.011292,0.026611,-0.003906,0.003906,0.003906
28385860000,0.999451,-0.014709,0.011292,0.026672,-0.003906,-0.031250,0.003906
28404225000,0.999451,-0.014709,0.011292,0.026611,-0.003906,0.003906,-0.035156
28424926000,0.999451,-0.014709,0.011292,0.026611,-0.003906,0.003906,0.042969
28444803000,0.999451,-0.014771,0.011292,0.026611,-0.003906,0.003906,0.003906
28467496000,0.999451,-0.014771,0.011292,0.026611,-0.039062,0.003906,-0.035156
28483880000,0.999451,-0.014771,0.011230,0.026611,-0.003906,0.003906,0.003906
28504248000,0.999451,-0.014771,0.011292,0.026611,-0.078125,0.003906,0.042969
28524399000,0.999451,-0.014771,0.011230,0.026611,0.113281,-0.031250,-0.035156
28544240000,0.999451,-0.014709,0.011230,0.026611,-0.003906,0.003906,0.003906
28563780000,0.999451,-0.014709,0.011230,0.026611,-0.003906,0.003906,0.003906
28589739000,0.999451,-0.014709,0.011292,0.026611,-0.003906,0.003906,0.042969
28603715000,0.999451,-0.014771,0.011230,0.026611,-0.003906,0.003906,0.003906
28628177000,0.999451,-0.014771,0.011230,0.026611,-0.003906,0.003906,0.003906
28643668000,0.999451,-0.014771,0.011230,0.026611,-0.003906,0.003906,0.003906
28663710000,0.999451,-0.014771,0.011230,0.026611,-0.003906,-0.031250,0.003906
28684049000,0.999451,-0.014771,0.011230,0.026611,-0.003906,0.003906,0.003906
28706871000,0.999451,-0.014771,0.011230,0.026611,-0.003906,0.003906,0.003906
28723622000,0.999451,-0.014771,0.011230,0.026611,-0.003906,0.003906,0.003906
28743023000,0.999451,-0.014771,0.011230,0.026611,-0.039062,0.003906,-0.003906
28772839000,0.999451,-0.014771,0.011230,0.026611,-0.039062,0.003906,-0.003906
28788017000,0.999451,-0.014771,0.011230,0.026611,0.074219,0.003906,0.035156
28803204000,0.999451,-0.014771,0.011230,0.026611,-0.070312,-0.003906,0.035156
28823273000,0.999451,-0.014771,0.011230,0.026611,0.042969,-0.003906,-0.003906
28847317000,0.999451,-0.014771,0.011230,0.026611,0.042969,-0.039062,-0.003906
28864250000,0.999451,-0.014771,0.011230,0.026611,0.121094,0.003906,-0.003906
28883011000,0.999451,-0.014771,0.011230,0.026611,0.042969,0.003906,-0.042969
28902758000,0.999451,-0.014771,0.011230,0.026611,0.003906,0.003906,-0.003906
28922544000,0.999451,-0.014771,0.011230,0.026611,-0.003906,0.003906,-0.003906
28943707000,0.999451,-0.014771,0.011230,0.026611,-0.003906,0.003906,-0.003906
28963400000,0.999451,-0.014771,0.011230,0.026611,-0.003906,0.003906,-0.003906
28982855000,0.999451,-0.014771,0.011230,0.026611,-0.003906,-0.031250,-0.003906
29002538000,0.999451,-0.014771,0.011230,0.026611,-0.003906,0.003906,-0.003906
29023288000,0.999451,-0.014771,0.011230,0.026611,-0.003906,0.003906,-0.003906
29045482000,0.999451,-0.014771,0.011230,0.026611,-0.003906,-0.031250,0.003906
29070677000,0.999451,-0.014771,0.011230,0.026611,-0.003906,-0.031250,0.003906
29081955000,0.999451,-0.014771,0.011230,0.026611,-0.003906,0.003906,0.042969
29102832000,0.999451,-0.014771,0.011230,0.026611,-0.003906,0.003906,0.003906
29124204000,0.999451,-0.014771,0.011230,0.026611,-0.003906,0.003906,0.003906
29142218000,0.999451,-0.014771,0.011230,0.026611,-0.003906,0.003906,0.042969
29161874000,0.999451,-0.014771,0.011230,0.026611,-0.003906,-0.031250,0.042969
29182141000,0.999451,-0.014771,0.011230,0.026611,0.035156,0.003906,0.003906
29202086000,0.999451,-0.014771,0.011230,0.026611,-0.003906,0.003906,-0.035156
29228324000,0.999451,-0.014771,0.011230,0.026611,-0.003906,0.003906,0.003906
29241602000,0.999451,-0.014771,0.011230,0.026611,-0.039062,0.003906,-0.035156
29261628000,0.999451,-0.014771,0.011230,0.026611,-0.039062,0.003906,0.003906
29284018000,0.999451,-0.014771,0.011230,0.026611,-0.003906,0.003906,0.003906
29301615000,0.999451,-0.014771,0.011230,0.026611,-0.003906,-0.031250,0.003906
29321790000,0.999451,-0.014771,0.011230,0.026611,-0.003906,0.003906,0.003906
29341942000,0.999451,-0.014771,0.011230,0.026611,-0.003906,0.003906,0.003906
29362578000,0.999451,-0.014771,0.011230,0.026611,-0.003906,0.003906,0.003906
29391203000,0.999451,-0.014771,0.011230,0.026611,-0.003906,0.003906,0.003906
29401976000,0.999451,-0.014771,0.011230,0.026611,-0.003906,0.003906,0.003906
29421650000,0.999451,-0.014771,0.011230,0.026611,-0.003906,0.003906,0.003906
29441445000,0.999451,-0.014771,0.011230,0.026611,-0.039062,-0.031250,0.003906
29464492000,0.999451,-0.014771,0.011230,0.026611,-0.003906,0.003906,0.042969
29483737000,0.999451,-0.014771,0.011230,0.026611,-0.003906,0.003906,0.003906
29500966000,0.999451,-0.014771,0.011230,0.026611,-0.039062,0.003906,0.003906
29522268000,0.999451,-0.014771,0.011230,0.026611,-0.003906,0.003906,0.003906
29546398000,0.999451,-0.014771,0.011230,0.026611,-0.003906,-0.031250,0.003906
29560724000,0.999451,-0.014771,0.011230,0.026611,-0.003906,0.003906,0.003906
29582795000,0.999451,-0.014771,0.011230,0.026611,-0.003906,0.003906,0.003906
29605246000,0.999451,-0.014771,0.011230,0.026611,-0.003906,0.003906,0.003906
29620826000,0.999451,-0.014771,0.011230,0.026611,-0.003906,0.003906,0.003906
29640524000,0.999451,-0.014832,0.011230,0.026611,-0.046875,0.003906,0.003906
29661474000,0.999451,-0.014832,0.011169,0.026611,-0.011719,0.003906,0.042969
29690538000,0.999451,-0.014771,0.011230,0.026611,-0.164062,0.003906,0.042969
29700670000,0.999451,-0.014771,0.011169,0.026550,-0.578125,0.042969,0.003906
29720906000,0.999451,-0.014709,0.011169,0.026550,0.312500,-0.031250,0.042969
29746293000,0.999451,-0.014771,0.011169,0.026550,0.003906,0.003906,0.003906
29760824000,0.999451,-0.014771,0.011169,0.026550,0.003906,-0.031250,0.003906
29780520000,0.999451,-0.014771,0.011169,0.026611,0.003906,0.003906,0.003906
29801121000,0.999451,-0.014771,0.011169,0.026611,0.003906,0.003906,0.003906
29825290000,0.999451,-0.014771,0.011108,0.026611,0.003906,0.003906,-0.035156
29839951000,0.999451,-0.014771,0.011169,0.026611,0.003906,-0.031250,0.003906
29860206000,0.999451,-0.014771,0.011169,0.026611,0.003906,0.003906,0.003906
29880091000,0.999451,-0.014832,0.011108,0.026611,0.003906,0.003906,0.003906
29909653000,0.999451,-0.014771,0.011108,0.026611,0.003906,0.003906,0.003906
29920065000,0.999451,-0.014832,0.011108,0.026672,0.003906,0.003906,0.003906
29940048000,0.999451,-0.014832,0.011108,0.026672,0.003906,-0.031250,0.003906
29960998000,0.999451,-0.014771,0.011108,0.026672,0.003906,0.003906,0.003906
29989623000,0.999451,-0.014771,0.011108,0.026611,0.003906,0.003906,0.042969
30000183000,0.999451,-0.014771,0.011108,0.026611,0.003906,0.003906,-0.035156
30019734000,0.999451,-0.014771,0.011108,0.026611,0.003906,-0.031250,0.003906
30040259000,0.999451,-0.014709,0.011108,0.026611,0.003906,0.003906,0.003906
30059940000,0.999451,-0.014709,0.011108,0.026611,-0.011719,0.003906,-0.003906
30080247000,0.999451,-0.014709,0.011108,0.026611,-0.011719,0.003906,-0.003906
30099994000,0.999451,-0.014709,0.011108,0.026611,-0.011719,0.003906,-0.003906
30126384000,0.999451,-0.014709,0.011108,0.026611,-0.011719,0.003906,-0.003906
30139738000,0.999451,-0.014709,0.011108,0.026611,-0.011719,0.003906,-0.003906
30159467000,0.999451,-0.014709,0.011047,0.026611,-0.011719,0.003906,-0.003906
30181036000,0.999451,-0.014709,0.011047,0.026611,-0.011719,0.003906,-0.003906
30200921000,0.999451,-0.014709,0.011047,0.026611,-0.011719,0.003906,-0.003906
30229248000,0.999451,-0.014709,0.011047,0.026611,-0.011719,0.003906,-0.003906
30239295000,0.999451,-0.014709,0.011047,0.026611,-0.011719,0.003906,-0.003906
30259937000,0.999451,-0.014709,0.011047,0.026611,-0.011719,0.003906,-0.003906
30279400000,0.999451,-0.014709,0.010986,0.026611,-0.003906,0.003906,0.003906
30303935000,0.999451,-0.014771,0.010986,0.026611,-0.003906,0.003906,0.003906
30319442000,0.999451,-0.014771,0.010986,0.026611,-0.003906,-0.031250,0.003906
30339804000,0.999451,-0.014771,0.010986,0.026611,-0.003906,0.003906,0.003906
30359587000,0.999451,-0.014832,0.010986,0.026611,0.035156,0.003906,-0.035156
30379517000,0.999451,-0.014832,0.010986,0.026611,-0.003906,-0.003906,-0.003906
30409455000,0.999451,-0.014771,0.010986,0.026611,-0.003906,-0.003906,-0.003906
30419013000,0.999451,-0.014771,0.010986,0.026611,-0.003906,-0.003906,-0.042969
30439212000,0.999451,-0.014771,0.011047,0.026550,-0.347656,0.035156,-0.003906
30458904000,0.999451,-0.014771,0.010986,0.026550,0.273438,-0.003906,-0.003906
30488244000,0.999451,-0.014832,0.010986,0.026550,0.003906,-0.003906,-0.003906
30498697000,0.999451,-0.014832,0.011047,0.026550,0.003906,-0.003906,-0.042969
30523746000,0.999451,-0.014832,0.011047,0.026489,-0.070312,-0.003906,-0.042969
30538875000,0.999451,-0.014893,0.011047,0.026489,0.042969,-0.039062,-0.003906
30558991000,0.999451,-0.014893,0.011047,0.026489,0.082031,-0.039062,-0.003906
30578841000,0.999451,-0.014893,0.010986,0.026489,0.003906,-0.039062,-0.003906
30618394000,0.999451,-0.014893,0.010986,0.026489,0.003906,-0.003906,-0.003906
30628114000,0.999451,-0.014893,0.011047,0.026489,0.003906,-0.003906,-0.003906
30638479000,0.999451,-0.014893,0.011047,0.026489,0.003906,-0.003906,-0.003906
30668312000,0.999451,-0.014893,0.011047,0.026550,-0.003906,-0.003906,-0.003906
30682242000,0.999451,-0.014893,0.011047,0.026550,-0.003906,-0.003906,-0.003906
30698512000,0.999451,-0.014893,0.011047,0.026550,-0.003906,-0.003906,-0.003906
30718811000,0.999451,-0.014893,0.010986,0.026550,-0.003906,-0.003906,-0.003906
30747892000,0.999451,-0.014893,0.011047,0.026550,-0.003906,-0.003906,-0.003906
30757765000,0.999451,-0.014832,0.010986,0.026550,-0.003906,-0.003906,-0.003906
30778866000,0.999451,-0.014893,0.010986,0.026550,-0.003906,-0.003906,-0.042969
30798425000,0.999451,-0.014832,0.010986,0.026550,-0.003906,-0.003906,-0.003906
30827727000,0.999451,-0.014832,0.010986,0.026550,-0.003906,-0.003906,-0.003906
30842338000,0.999451,-0.014832,0.010986,0.026550,-0.003906,-0.003906,-0.003906
30858402000,0.999451,-0.014771,0.010986,0.026550,0.035156,-0.003906,-0.003906
30878405000,0.999451,-0.014771,0.010925,0.026672,0.074219,-0.039062,0.035156
30898967000,0.999451,-0.014709,0.010986,0.026733,0.488281,0.035156,-0.042969
30926984000,0.999451,-0.014893,0.011108,0.026428,0.554688,0.160156,0.300781
30937424000,0.999512,-0.014771,0.010986,0.026367,0.250000,-0.187500,-0.312500
30958467000,0.999512,-0.014771,0.011230,0.026062,0.480469,-0.070312,0.035156
30986982000,0.999512,-0.014648,0.011169,0.025696,-0.101562,-0.117188,-0.113281
30997132000,0.999512,-0.014832,0.011230,0.025635,0.394531,-0.117188,-0.187500
31018721000,0.999512,-0.014709,0.011292,0.025513,0.355469,-0.039062,0.042969
31038498000,0.999512,-0.014771,0.011230,0.025513,-0.035156,0.042969,0.078125
31066827000,0.999512,-0.014771,0.011353,0.025391,-0.187500,-0.031250,-0.187500
31086428000,0.999512,-0.014893,0.011353,0.025269,0.121094,0.082031,0.347656
31097167000,0.999512,-0.014893,0.011292,0.025269,0.457031,-0.261719,-0.226562
31126796000,0.999512,-0.014526,0.011414,0.024963,0.187500,0.082031,0.269531
31137303000,0.999512,-0.014648,0.011475,0.024902,0.187500,-0.156250,0.148438
31158385000,0.999512,-0.014709,0.011353,0.024658,-0.003906,-0.039062,-0.160156
31186862000,0.999512,-0.014648,0.011353,0.024414,-0.203125,0.003906,-0.234375
31206573000,0.999512,-0.014709,0.011536,0.024170,-0.085938,0.082031,0.492188
31226099000,0.999512,-0.014771,0.011414,0.023926,-0.585938,0.003906,-0.042969
31237870000,0.999512,-0.014771,0.011597,0.023804,-0.355469,0.042969,0.035156
31266479000,0.999573,-0.014526,0.011658,0.023499,-0.746094,0.195312,0.300781
31277243000,0.999573,-0.014404,0.011597,0.023499,-0.785156,-0.187500,-0.386719
31306516000,0.999573,-0.014343,0.011597,0.023376,-0.058594,-0.070312,-0.304688
31324875000,0.999573,-0.014526,0.011719,0.023376,-0.441406,-0.039062,0.003906
31339236000,0.999573,-0.014282,0.011719,0.023315,-0.441406,-0.039062,-0.113281
31359876000,0.999573,-0.014343,0.011719,0.023376,0.210938,0.003906,0.003906
31379077000,0.999573,-0.014343,0.011780,0.023376,-0.093750,-0.070312,-0.113281
31401176000,0.999573,-0.014343,0.011597,0.023438,-0.250000,-0.261719,-0.035156
31422626000,0.999573,-0.014404,0.011780,0.023438,0.019531,-0.031250,-0.187500
31439011000,0.999573,-0.014465,0.011780,0.023499,-0.593750,0.003906,-0.074219
31459100000,0.999573,-0.014343,0.011719,0.023560,-0.515625,0.121094,0.070312
31478700000,0.999573,-0.014465,0.011780,0.023682,-0.210938,-0.261719,-0.042969
31504176000,0.999573,-0.014221,0.011719,0.023865,-0.093750,-0.031250,-0.003906
31518690000,0.999512,-0.014343,0.011841,0.023926,0.058594,0.003906,-0.160156
31539032000,0.999573,-0.014282,0.011719,0.023987,0.210938,0.128906,0.148438
31559812000,0.999512,-0.014465,0.011841,0.023865,0.210938,-0.023438,-0.042969
31583302000,0.999573,-0.014404,0.011719,0.023804,-0.402344,0.011719,-0.121094
31598097000,0.999573,-0.014404,0.011719,0.023682,0.179688,0.011719,0.070312
31619009000,0.999573,-0.014465,0.011780,0.023682,-0.546875,0.011719,-0.121094
31639094000,0.999573,-0.014404,0.011780,0.023682,-0.316406,0.050781,-0.003906
31660954000,0.999573,-0.014282,0.011780,0.023621,-0.472656,-0.070312,-0.003906
31684040000,0.999573,-0.014221,0.011780,0.023621,-0.050781,0.042969,-0.003906
31700046000,0.999573,-0.014221,0.011719,0.023621,0.105469,0.003906,0.035156
31719546000,0.999573,-0.014221,0.011719,0.023621,0.296875,0.042969,0.035156
31739933000,0.999573,-0.014343,0.011719,0.023560,0.554688,0.011719,-0.003906
31758816000,0.999573,-0.014282,0.011658,0.023499,0.132812,0.050781,0.078125
31778821000,0.999573,-0.014160,0.011719,0.023315,-0.277344,0.042969,0.078125
31800346000,0.999573,-0.014221,0.011719,0.023010,-0.085938,-0.070312,-0.035156
31822765000,0.999573,-0.014221,0.011719,0.022705,-0.593750,0.042969,-0.082031
31845476000,0.999573,-0.014099,0.011597,0.022278,-0.277344,-0.031250,0.035156
31865145000,0.999573,-0.014160,0.011658,0.022034,-0.164062,0.003906,-0.003906
31884221000,0.999573,-0.014160,0.011597,0.022034,-0.011719,-0.031250,-0.042969
31904487000,0.999573,-0.014160,0.011597,0.021973,-0.242188,0.003906,-0.003906
31924538000,0.999573,-0.014160,0.011597,0.021973,-0.050781,0.003906,0.035156
31949256000,0.999573,-0.014160,0.011597,0.021973,-0.050781,0.003906,-0.003906
31964472000,0.999573,-0.014160,0.011597,0.021973,-0.050781,0.003906,-0.003906
31984903000,0.999573,-0.014160,0.011597,0.021973,-0.050781,0.003906,-0.003906
32003944000,0.999573,-0.014160,0.011597,0.021973,-0.050781,0.003906,-0.003906
32026364000,0.999573,-0.014160,0.011597,0.021973,-0.050781,0.003906,-0.003906
32048266000,0.999573,-0.014160,0.011597,0.021973,-0.042969,0.003906,0.003906
32064017000,0.999573,-0.014160,0.011597,0.022034,-0.078125,0.003906,0.003906
32083759000,0.999573,-0.014221,0.011597,0.022034,-0.042969,0.003906,0.003906
32103904000,0.999573,-0.014221,0.011597,0.022034,-0.042969,0.011719,0.035156
32124029000,0.999573,-0.014221,0.011597,0.022034,-0.042969,0.011719,-0.003906
32147559000,0.999573,-0.014221,0.011597,0.022034,-0.042969,0.011719,-0.003906
32169241000,0.999573,-0.014221,0.011597,0.022034,0.066406,0.003906,0.003906
32183572000,0.999573,-0.014221,0.011597,0.022034,0.105469,0.003906,0.003906
32204511000,0.999573,-0.014221,0.011597,0.022034,0.058594,0.003906,0.003906
32223626000,0.999573,-0.014282,0.011658,0.022034,0.058594,0.003906,0.003906
32247426000,0.999573,-0.014221,0.011658,0.022034,0.050781,-0.031250,0.042969
32263688000,0.999573,-0.014221,0.011658,0.022034,0.015625,0.003906,0.003906
32284373000,0.999573,-0.014221,0.011658,0.022034,0.042969,0.003906,0.042969
32303373000,0.999573,-0.014160,0.011658,0.021973,0.042969,-0.031250,-0.035156
32323678000,0.999573,-0.014160,0.011658,0.021973,0.074219,0.003906,0.003906
32349292000,0.999573,-0.014160,0.011658,0.021973,0.035156,0.003906,0.003906
32363504000,0.999573,-0.014221,0.011658,0.021973,0.027344,0.003906,-0.035156
32383237000,0.999573,-0.014221,0.011658,0.021973,0.066406,0.003906,0.003906
32403164000,0.999573,-0.014221,0.011658,0.021973,0.027344,0.003906,0.003906
32424848000,0.999573,-0.014221,0.011658,0.021973,0.027344,0.003906,0.042969
32442915000,0.999573,-0.014221,0.011719,0.021973,0.027344,-0.003906,-0.003906
32462951000,0.999573,-0.014221,0.011719,0.021973,0.019531,-0.003906,0.035156
32484246000,0.999573,-0.014160,0.011719,0.021973,0.019531,-0.003906,-0.003906
32507098000,0.999573,-0.014221,0.011658,0.021912,0.019531,0.035156,-0.003906
32522700000,0.999573,-0.014160,0.011719,0.021912,0.050781,-0.003906,-0.003906
32543417000,0.999573,-0.014160,0.011719,0.021912,0.011719,-0.003906,-0.003906
32562498000,0.999573,-0.014160,0.011719,0.021912,0.011719,-0.003906,-0.003906
32585341000,0.999573,-0.014221,0.011658,0.021912,0.011719,-0.003906,-0.003906
32603169000,0.999573,-0.014221,0.011658,0.021912,0.011719,-0.003906,-0.003906
32622817000,0.999573,-0.014221,0.011658,0.021912,0.003906,-0.003906,0.035156
32642896000,0.999573,-0.014221,0.011658,0.021912,-0.003906,-0.003906,-0.003906
32663198000,0.999573,-0.014221,0.011658,0.021912,-0.003906,-0.003906,-0.003906
32685898000,0.999573,-0.014221,0.011658,0.021912,-0.003906,-0.003906,-0.003906
32708063000,0.999573,-0.014282,0.011658,0.021912,-0.003906,-0.003906,0.035156
32722103000,0.999573,-0.014282,0.011658,0.021912,-0.003906,-0.003906,-0.003906
32743042000,0.999573,-0.014343,0.011658,0.021912,-0.003906,-0.003906,-0.003906
32773110000,0.999573,-0.014343,0.011658,0.021912,-0.003906,0.003906,0.035156
32786931000,0.999573,-0.014343,0.011658,0.021912,-0.003906,0.003906,-0.003906
32803313000,0.999573,-0.014343,0.011658,0.021973,-0.003906,-0.031250,-0.003906
32821981000,0.999573,-0.014343,0.011658,0.021973,-0.003906,0.003906,-0.003906
32842208000,0.999573,-0.014282,0.011658,0.021973,0.035156,-0.003906,-0.003906
32872006000,0.999573,-0.014282,0.011658,0.021973,-0.003906,-0.003906,-0.003906
32882062000,0.999573,-0.014282,0.011658,0.021973,-0.003906,-0.003906,-0.003906
32901869000,0.999573,-0.014282,0.011658,0.021973,0.042969,-0.003906,-0.003906
32922536000,0.999573,-0.014282,0.011658,0.021973,-0.003906,-0.003906,-0.003906
32946245000,0.999573,-0.014282,0.011719,0.021973,0.003906,-0.003906,-0.042969
32964157000,0.999573,-0.014221,0.011719,0.021973,0.003906,-0.003906,-0.003906
32983345000,0.999573,-0.014221,0.011719,0.021973,-0.003906,-0.003906,-0.003906
33001789000,0.999573,-0.014221,0.011719,0.021973,-0.003906,-0.003906,-0.003906
33021360000,0.999573,-0.014221,0.011719,0.021973,-0.003906,-0.003906,-0.003906
33041344000,0.999573,-0.014221,0.011719,0.021973,-0.003906,-0.003906,-0.003906
33069460000,0.999573,-0.014282,0.011719,0.021973,0.003906,-0.003906,0.035156
33081233000,0.999573,-0.014282,0.011658,0.021973,0.003906,-0.003906,-0.003906
33112195000,0.999573,-0.014282,0.011719,0.021973,0.042969,0.035156,-0.003906
33127276000,0.999573,-0.014221,0.011719,0.021912,0.042969,-0.003906,-0.003906
33142004000,0.999573,-0.014221,0.011658,0.021912,0.003906,-0.003906,-0.003906
33161013000,0.999573,-0.014160,0.011719,0.021912,0.035156,-0.003906,-0.003906
33191545000,0.999573,-0.014160,0.011719,0.021912,-0.003906,-0.003906,-0.003906
33201221000,0.999573,-0.014160,0.011719,0.021912,-0.003906,-0.003906,-0.003906
33221319000,0.999573,-0.014099,0.011719,0.021912,-0.003906,-0.003906,-0.003906
33241218000,0.999573,-0.014099,0.011719,0.021912,-0.011719,-0.003906,-0.003906
33271066000,0.999573,-0.014099,0.011719,0.021912,-0.011719,-0.003906,-0.003906
33280413000,0.999573,-0.014099,0.011719,0.021912,-0.011719,0.035156,-0.003906
33301055000,0.999573,-0.014099,0.011719,0.021912,-0.046875,-0.003906,0.035156
33330793000,0.999573,-0.014099,0.011719,0.021912,0.027344,-0.003906,-0.042969
33347136000,0.999573,-0.014099,0.011719,0.021912,-0.011719,-0.003906,-0.003906
33360133000,0.999573,-0.014099,0.011719,0.021912,-0.011719,-0.003906,-0.003906
33380479000,0.999573,-0.014099,0.011719,0.021912,-0.011719,-0.003906,-0.003906
33403888000,0.999573,-0.014099,0.011719,0.021912,-0.011719,-0.003906,-0.003906
33420134000,0.999573,-0.014099,0.011719,0.021912,-0.011719,-0.003906,-0.003906
33439977000,0.999573,-0.014099,0.011719,0.021912,0.027344,-0.003906,-0.003906
33460276000,0.999573,-0.014099,0.011719,0.021912,-0.011719,-0.003906,-0.003906
33480840000,0.999573,-0.014099,0.011719,0.021912,-0.011719,-0.003906,0.035156
33510854000,0.999573,-0.014099,0.011719,0.021912,-0.011719,-0.003906,-0.042969
33519915000,0.999573,-0.014099,0.011719,0.021912,-0.011719,-0.003906,-0.003906
33540110000,0.999573,-0.014099,0.011719,0.021912,-0.011719,-0.003906,-0.003906
33570236000,0.999573,-0.014099,0.011719,0.021912,-0.011719,-0.003906,0.035156
33581133000,0.999573,-0.014099,0.011719,0.021912,-0.011719,-0.003906,-0.003906
33600021000,0.999573,-0.014099,0.011719,0.021912,-0.011719,-0.003906,-0.003906
33619891000,0.999573,-0.014099,0.011719,0.021912,-0.011719,-0.003906,0.035156
33649689000,0.999573,-0.014099,0.011719,0.021912,-0.011719,-0.003906,-0.003906
