timestamp_ns,qw,qx,qy,qz,ax,ay,az,t_sec,dist_48e72,dist_83a8d,dist_e05a1
2734843000,0.999939,0.006042,0.011597,0.0,-0.003906,0.003906,-0.027344,0.063155,6.01,2.65,4.93
2744399000,0.999939,0.006042,0.011597,-6.1e-05,-0.003906,-0.03125,-0.027344,0.072711,,,
2762375000,0.999939,0.006042,0.011597,-6.1e-05,-0.003906,-0.03125,-0.027344,0.090687,,,
2774659000,0.999939,0.006042,0.011658,-6.1e-05,-0.003906,-0.03125,-0.019531,0.102971,,,
2787600000,0.999939,0.006042,0.011658,-6.1e-05,-0.003906,-0.03125,-0.019531,0.115912,,,
2795052000,0.999939,0.006042,0.011658,-6.1e-05,-0.003906,-0.023438,-0.058594,0.123364,,,
2810905000,0.999939,0.006042,0.011658,-6.1e-05,-0.003906,-0.023438,-0.019531,0.139217,,,
2825068000,0.999939,0.006104,0.011658,-6.1e-05,0.035156,-0.023438,0.019531,0.15338,,,
2838133000,0.999939,0.006104,0.011658,-0.000122,-0.003906,-0.023438,-0.050781,0.166445,,,
2844286000,0.999939,0.006104,0.011658,-0.000122,-0.003906,-0.023438,-0.011719,0.172598,,,
2855839000,0.999939,0.006104,0.011658,-6.1e-05,-0.003906,-0.023438,-0.050781,0.184151,,,
2874258000,0.999939,0.006104,0.011658,-0.000122,-0.003906,-0.023438,-0.011719,0.20257,,,
2891782000,0.999939,0.006104,0.011658,-0.000122,-0.003906,-0.023438,-0.011719,0.220094,6.01,2.68,4.9
2904354000,0.999939,0.006104,0.011658,-0.000122,-0.003906,0.019531,-0.011719,0.232666,,,
2914619000,0.999939,0.006104,0.011658,-0.000122,-0.003906,-0.015625,-0.042969,0.242931,,,
2934508000,0.999939,0.006104,0.011658,-0.000122,-0.003906,0.0,0.003906,0.26282,,,
2944111000,0.999939,0.006104,0.011658,-0.000122,-0.003906,0.035156,0.003906,0.272423,,,
2964065000,0.999939,0.006165,0.011658,-0.000122,-0.003906,0.0,0.003906,0.292377,,,
2984254000,0.999939,0.006104,0.011658,-0.000122,-0.003906,0.0,0.042969,0.312566,,,
3009207000,0.999939,0.006104,0.011658,-0.000122,-0.003906,0.0,-0.035156,0.337519,,,
3023841000,0.999939,0.006165,0.011658,-0.000122,-0.003906,0.0,0.003906,0.352153,,,
3044641000,0.999939,0.006165,0.011658,-0.000122,-0.003906,0.0,0.003906,0.372953,,,
3067816000,0.999939,0.006165,0.011658,-0.000122,-0.003906,0.0,0.003906,0.396128,,,
3084490000,0.999939,0.006104,0.011658,-0.000122,-0.003906,0.0,0.003906,0.412802,6.03,2.68,4.92
3103717000,0.999939,0.006104,0.011658,-0.000122,-0.003906,-0.007812,0.042969,0.432029,,,
3134058000,0.999939,0.006104,0.011658,-6.1e-05,0.035156,-0.007812,0.003906,0.46237,,,
3150317000,0.999939,0.006104,0.011658,-6.1e-05,-0.003906,-0.007812,0.042969,0.478629,,,
3163707000,0.999939,0.006104,0.011658,-6.1e-05,-0.003906,-0.007812,0.003906,0.492019,,,
3183569000,0.999939,0.006104,0.011658,-6.1e-05,-0.003906,0.0,0.003906,0.511881,,,
3205780000,0.999939,0.006104,0.011719,-6.1e-05,-0.003906,0.0,0.003906,0.534092,,,
3229933000,0.999939,0.006165,0.011719,-6.1e-05,-0.003906,0.0,0.003906,0.558245,,,
3243436000,0.999939,0.006104,0.011719,-6.1e-05,-0.003906,0.0,0.003906,0.571748,,,
3265343000,0.999939,0.006104,0.011658,-6.1e-05,-0.003906,0.0,0.003906,0.593655,,,
3293330000,0.999939,0.006104,0.011658,-6.1e-05,-0.003906,0.035156,0.003906,0.621642,6.02,2.65,4.93
3303094000,0.999939,0.006104,0.011719,-6.1e-05,-0.003906,0.035156,-0.035156,0.631406,,,
3329973000,0.999939,0.006042,0.011658,-0.000122,-0.003906,0.0,0.003906,0.658285,,,
3343611000,0.999939,0.006042,0.011658,-0.000122,-0.003906,0.0,0.003906,0.671923,,,
3362764000,0.999939,0.006042,0.011658,-0.000122,-0.042969,0.027344,0.003906,0.691076,,,
3383560000,0.999939,0.006042,0.011658,-0.000122,-0.003906,0.027344,0.003906,0.711872,,,
3402694000,0.999939,0.006042,0.011658,-0.000122,-0.003906,-0.007812,0.003906,0.731006,,,
3424606000,0.999939,0.006042,0.011658,-0.000122,-0.003906,-0.007812,0.003906,0.752918,,,
3443247000,0.999939,0.006042,0.011719,-0.000122,-0.003906,-0.007812,0.042969,0.771559,,,
3463008000,0.999939,0.006042,0.011719,-0.000122,-0.003906,-0.007812,0.003906,0.79132,,,
3482679000,0.999939,0.006042,0.011719,-0.000122,-0.003906,-0.007812,0.003906,0.810991,6.02,2.67,4.95
3513037000,0.999939,0.006104,0.011719,-0.000122,-0.003906,-0.007812,0.003906,0.841349,,,
3522527000,0.999939,0.006104,0.011719,-0.000122,-0.042969,-0.007812,0.003906,0.850839,,,
3543008000,0.999939,0.006104,0.011719,-0.000122,-0.003906,-0.007812,0.042969,0.87132,,,
3563876000,0.999939,0.006104,0.011719,-0.000122,-0.003906,-0.007812,-0.035156,0.892188,,,
3588497000,0.999939,0.006104,0.011719,-0.000122,-0.003906,-0.007812,0.003906,0.916809,,,
3602080000,0.999939,0.006104,0.011719,-0.000122,-0.003906,-0.007812,0.003906,0.930392,,,
3622206000,0.999939,0.006042,0.011719,-0.000122,-0.003906,0.027344,-0.035156,0.950518,,,
3653041000,0.999939,0.006104,0.011719,-0.000122,-0.003906,-0.007812,0.003906,0.981353,,,
3662146000,0.999939,0.006104,0.011719,-0.000122,-0.003906,-0.007812,0.003906,0.990458,,,
3682456000,0.999939,0.006042,0.011719,-0.000122,-0.003906,0.027344,0.003906,1.010768,6.02,2.67,4.91
3702253000,0.999939,0.006042,0.011719,-0.000122,-0.003906,-0.007812,0.042969,1.030565,,,
3722026000,0.999939,0.006042,0.011719,-0.000122,-0.003906,-0.007812,0.003906,1.050338,,,
3741945000,0.999939,0.006042,0.011719,-0.000122,-0.003906,-0.007812,0.042969,1.070257,,,
3771509000,0.999939,0.006042,0.011719,-0.000122,-0.035156,-0.007812,0.003906,1.099821,,,
3782134000,0.999939,0.006042,0.011719,-0.000122,0.003906,-0.007812,0.003906,1.110446,,,
3801631000,0.999939,0.006042,0.011719,-0.000122,0.003906,-0.007812,0.042969,1.129943,,,
3827245000,0.999939,0.006042,0.011719,-0.000122,0.003906,-0.007812,0.003906,1.155557,,,
3841630000,0.999939,0.006042,0.011719,-0.000122,0.003906,0.027344,0.003906,1.169942,,,
3861914000,0.999939,0.006042,0.011719,-0.000122,0.003906,-0.007812,-0.035156,1.190226,,,
3888155000,0.999939,0.006042,0.011719,-0.000122,0.003906,-0.007812,0.003906,1.216467,6.01,2.68,4.89
3903892000,0.999939,0.006042,0.011719,-0.000122,0.003906,0.027344,0.003906,1.232204,,,
3922051000,0.999939,0.006042,0.011719,-0.000122,0.003906,-0.007812,0.042969,1.250363,,,
3951531000,0.999939,0.006042,0.011719,-0.000122,0.003906,-0.007812,0.003906,1.279843,,,
3961895000,0.999939,0.006042,0.011719,-0.000122,0.003906,0.027344,0.003906,1.290207,,,
3983796000,0.999939,0.006042,0.011719,-0.000122,0.003906,-0.007812,0.042969,1.312108,,,
4011678000,0.999939,0.006042,0.011719,-0.000122,-0.003906,-0.007812,-0.003906,1.33999,,,
4021510000,0.999939,0.006042,0.011719,-0.000122,-0.003906,-0.007812,-0.003906,1.349822,,,
4041372000,0.999939,0.006042,0.011719,-0.000122,-0.003906,0.027344,-0.003906,1.369684,,,
4062110000,0.999939,0.006042,0.011719,-0.000122,-0.003906,-0.007812,-0.003906,1.390422,,,
4081077000,0.999939,0.006042,0.011719,-0.000122,-0.003906,-0.015625,-0.003906,1.409389,,,
4100881000,0.999939,0.006042,0.011719,-0.000122,-0.003906,0.019531,-0.003906,1.429193,6.04,2.68,4.92
4126798000,0.999939,0.006042,0.011719,-0.000122,-0.003906,0.019531,-0.003906,1.45511,,,
4140659000,0.999939,0.006042,0.011719,-0.000122,-0.003906,-0.015625,0.035156,1.468971,,,
4167676000,0.999939,0.006042,0.011719,-0.000122,-0.003906,-0.015625,-0.003906,1.495988,,,
4180504000,0.999939,0.006042,0.011719,-0.000122,-0.003906,-0.015625,-0.003906,1.508816,,,
4201034000,0.999939,0.006042,0.011719,-0.000122,-0.003906,-0.015625,-0.003906,1.529346,,,
4230435000,0.999939,0.006042,0.011719,-0.000122,-0.003906,-0.007812,-0.003906,1.558747,,,
4240461000,0.999939,0.006042,0.011719,-0.000122,0.035156,-0.007812,-0.003906,1.568773,,,
4260420000,0.999939,0.006042,0.011719,-0.000122,-0.003906,-0.007812,-0.003906,1.588732,,,
4282388000,0.999939,0.006042,0.011719,-0.000122,-0.003906,-0.007812,-0.003906,1.6107,,,
4300250000,0.999939,0.006042,0.011719,-0.000122,-0.003906,-0.007812,-0.003906,1.628562,6.03,2.68,4.94
4320378000,0.999939,0.006042,0.011719,-0.000122,-0.003906,0.027344,-0.003906,1.64869,,,
4340157000,0.999939,0.006042,0.011719,-0.000122,-0.003906,0.027344,-0.003906,1.668469,,,
4360734000,0.999939,0.006042,0.011719,-0.000122,-0.003906,-0.007812,-0.003906,1.689046,,,
4380385000,0.999939,0.006042,0.011719,-0.000122,-0.003906,-0.007812,-0.003906,1.708697,,,
4400224000,0.999939,0.006042,0.011719,-0.000122,-0.003906,-0.007812,0.035156,1.728536,,,
4421454000,0.999939,0.006042,0.011719,-0.000122,-0.003906,-0.007812,-0.003906,1.749766,,,
4441629000,0.999939,0.006042,0.011719,-0.000122,-0.003906,-0.007812,-0.003906,1.769941,,,
4465886000,0.999939,0.006042,0.011719,-0.000122,-0.003906,-0.007812,-0.003906,1.794198,,,
4479850000,0.999939,0.006042,0.011719,-0.000122,-0.003906,-0.007812,-0.003906,1.808162,,,
4500073000,0.999939,0.006042,0.011719,-0.000122,-0.003906,-0.007812,-0.042969,1.828385,6.01,2.64,4.94
4526533000,0.999939,0.006042,0.011719,-0.000122,-0.003906,-0.007812,-0.003906,1.854845,,,
4539842000,0.999939,0.006042,0.011719,-0.000122,-0.003906,0.027344,-0.003906,1.868154,,,
4559578000,0.999939,0.006042,0.011719,-0.000122,-0.042969,-0.007812,-0.003906,1.88789,,,
4589582000,0.999939,0.006042,0.011719,-0.000122,-0.003906,0.027344,0.035156,1.917894,,,
4599287000,0.999939,0.006042,0.011719,-0.000122,-0.003906,0.027344,-0.003906,1.927599,,,
4620228000,0.999939,0.006042,0.011719,-0.000122,-0.003906,-0.007812,-0.003906,1.94854,,,
4649206000,0.999939,0.006042,0.011719,-0.000122,-0.003906,-0.007812,-0.003906,1.977518,,,
4659877000,0.999939,0.006042,0.011719,-0.000122,-0.042969,0.027344,0.035156,1.988189,,,
4680776000,0.999939,0.006042,0.011719,-0.000122,-0.003906,0.027344,-0.003906,2.009088,,,
4701511000,0.999939,0.006042,0.011719,-0.000122,-0.003906,-0.007812,0.035156,2.029823,6.01,2.72,4.91
4729108000,0.999939,0.006042,0.011719,-0.000122,-0.003906,0.027344,-0.003906,2.05742,,,
4739522000,0.999939,0.006042,0.011719,-0.000122,-0.003906,0.027344,0.035156,2.067834,,,
4759285000,0.999939,0.006042,0.011719,-0.000122,-0.003906,0.027344,-0.003906,2.087597,,,
4780946000,0.999939,0.006042,0.011719,-0.000122,0.035156,-0.007812,-0.003906,2.109258,,,
4799166000,0.999939,0.006042,0.011719,-0.000122,-0.003906,0.027344,0.035156,2.127478,,,
4819263000,0.999939,0.006042,0.011719,-0.000122,-0.003906,-0.007812,0.035156,2.147575,,,
4839015000,0.999939,0.006042,0.011719,-0.000122,-0.003906,0.019531,0.035156,2.167327,,,
4859443000,0.999939,0.006042,0.011719,-0.000122,-0.003906,0.019531,0.035156,2.187755,,,
4884727000,0.999939,0.006042,0.011719,-0.000122,0.035156,-0.015625,-0.003906,2.213039,,,
4898952000,0.999939,0.006042,0.011719,-0.000122,-0.003906,0.019531,0.035156,2.227264,6.03,2.64,4.91
4919472000,0.999939,0.006042,0.011719,-0.000122,-0.003906,-0.015625,-0.003906,2.247784,,,
4939751000,0.999939,0.006042,0.011719,-0.000122,-0.003906,-0.015625,-0.003906,2.268063,,,
4968958000,0.999939,0.006042,0.011719,-0.000122,-0.003906,-0.015625,-0.011719,2.29727,,,
4978525000,0.999939,0.006042,0.011719,-0.000122,-0.003906,0.019531,-0.011719,2.306837,,,
4999228000,0.999939,0.006042,0.011719,-0.000122,-0.003906,-0.015625,-0.011719,2.32754,,,
5019225000,0.999939,0.006042,0.011719,-0.000122,-0.003906,-0.015625,-0.003906,2.347537,,,
5048277000,0.999939,0.006042,0.011719,-0.000122,-0.003906,0.019531,-0.003906,2.376589,,,
5058426000,0.999939,0.006042,0.011719,-0.000122,-0.003906,-0.015625,-0.003906,2.386738,,,
5078992000,0.999939,0.006042,0.011719,-0.000122,-0.003906,0.019531,0.035156,2.407304,,,
5099049000,0.999939,0.006042,0.011719,-0.000122,-0.003906,0.019531,0.035156,2.427361,6.02,2.66,4.94
5128630000,0.999939,0.006042,0.011719,-0.000122,-0.003906,-0.015625,-0.011719,2.456942,,,
5138378000,0.999939,0.006042,0.011719,-0.000122,-0.003906,0.019531,0.027344,2.46669,,,
5167756000,0.999939,0.006042,0.011719,-0.000122,-0.003906,-0.015625,-0.011719,2.496068,,,
5188588000,0.999939,0.006042,0.011719,-0.000122,-0.003906,-0.015625,0.027344,2.5169,,,
5206208000,0.999939,0.006042,0.011719,-0.000122,-0.003906,-0.015625,0.027344,2.53452,,,
5238353000,0.999939,0.006042,0.011719,-0.000122,-0.003906,-0.015625,-0.011719,2.566665,,,
5247858000,0.999939,0.006042,0.011719,-0.000122,-0.003906,-0.015625,0.027344,2.57617,,,
5257905000,0.999939,0.006042,0.011719,-0.000122,-0.003906,-0.015625,-0.011719,2.586217,,,
5290225000,0.999939,0.006042,0.011719,-0.000122,-0.003906,-0.015625,-0.011719,2.618537,,,
5298431000,0.999939,0.006042,0.011719,-0.000122,-0.003906,-0.015625,-0.011719,2.626743,6.03,2.64,4.91
5327629000,0.999939,0.006042,0.011719,-0.000122,-0.003906,-0.015625,-0.011719,2.655941,,,
5337534000,0.999939,0.006042,0.011719,-0.000122,-0.003906,-0.015625,-0.011719,2.665846,,,
5358663000,0.999939,0.006042,0.011719,-0.000122,-0.003906,0.019531,0.027344,2.686975,,,
5378916000,0.999939,0.006042,0.011719,-0.000122,-0.003906,-0.007812,-0.011719,2.707228,,,
5407827000,0.999939,0.006042,0.011719,-0.000122,-0.003906,-0.007812,-0.011719,2.736139,,,
5427525000,0.999939,0.006042,0.011719,-0.000122,-0.042969,0.027344,0.027344,2.755837,,,
5437292000,0.999939,0.006042,0.011719,-0.000122,-0.003906,-0.007812,0.027344,2.765604,,,
5459051000,0.999939,0.006042,0.011719,-0.000122,-0.003906,-0.007812,0.027344,2.787363,,,
5487576000,0.999939,0.006042,0.011719,-0.000122,-0.003906,-0.007812,-0.011719,2.815888,,,
5504022000,0.999939,0.006042,0.011719,-0.000122,-0.003906,-0.007812,-0.011719,2.832334,6.01,2.69,4.89
5531851000,0.999939,0.006042,0.011719,-0.000122,-0.003906,0.027344,-0.011719,2.860163,,,
5547222000,0.999939,0.006042,0.011719,-0.000122,-0.003906,-0.007812,-0.011719,2.875534,,,
5567551000,0.999939,0.006042,0.011719,-0.000122,-0.003906,-0.007812,-0.011719,2.895863,,,
5586842000,0.999939,0.006042,0.011719,-0.000122,-0.003906,0.027344,-0.011719,2.915154,,,
5597249000,0.999939,0.006042,0.011719,-0.000122,-0.003906,-0.007812,-0.011719,2.925561,,,
5630166000,0.999939,0.006042,0.011719,-0.000122,-0.042969,-0.007812,-0.011719,2.958478,,,
5646673000,0.999939,0.006042,0.011719,-0.000122,-0.003906,0.027344,0.027344,2.974985,,,
5663795000,0.999939,0.006042,0.011719,-0.000122,-0.003906,-0.007812,0.027344,2.992107,,,
5678178000,0.999939,0.006042,0.011719,-0.000122,-0.003906,-0.007812,0.027344,3.00649,,,
5707364000,0.999939,0.006042,0.011719,-0.000122,-0.003906,0.027344,-0.011719,3.035676,6.02,2.63,4.92
5718392000,0.999939,0.006042,0.011719,-0.000122,-0.003906,-0.007812,-0.011719,3.046704,,,
5747387000,0.999939,0.006042,0.011719,-0.000122,-0.003906,-0.007812,-0.011719,3.075699,,,
5766509000,0.999939,0.006042,0.011719,-0.000122,-0.003906,0.027344,0.027344,3.094821,,,
5786546000,0.999939,0.006042,0.011719,-0.000122,-0.003906,-0.007812,-0.011719,3.114858,,,
5812736000,0.999939,0.006042,0.011719,-0.000122,0.035156,-0.007812,-0.011719,3.141048,,,
5828006000,0.999939,0.006042,0.011719,-0.000122,-0.003906,-0.007812,-0.011719,3.156318,,,
5846414000,0.999939,0.006042,0.011719,-0.000122,-0.003906,-0.007812,-0.003906,3.174726,,,
5866407000,0.999939,0.006042,0.011719,-0.000122,-0.003906,0.027344,-0.003906,3.194719,,,
5885993000,0.999939,0.006042,0.011719,-0.000122,-0.003906,0.027344,-0.042969,3.214305,,,
5906169000,0.999939,0.006042,0.011719,-0.000122,-0.003906,-0.007812,-0.003906,3.234481,6.03,2.66,4.92
5931153000,0.999939,0.006042,0.011719,-0.000122,-0.003906,-0.007812,0.035156,3.259465,,,
5945930000,0.999939,0.006042,0.011719,-0.000122,-0.003906,0.019531,-0.003906,3.274242,,,
5965684000,0.999939,0.006042,0.011719,-0.000122,-0.003906,0.019531,-0.003906,3.293996,,,
5977256000,0.999939,0.006042,0.011719,-0.000122,-0.003906,-0.015625,-0.003906,3.305568,,,
6005870000,0.999939,0.006042,0.011719,-0.000122,-0.003906,-0.015625,0.035156,3.334182,,,
6025860000,0.999939,0.006042,0.011719,-0.000122,-0.003906,0.019531,-0.003906,3.354172,,,
6046466000,0.999939,0.006042,0.011719,-0.000122,-0.003906,-0.015625,0.035156,3.374778,,,
6071421000,0.999939,0.006042,0.011719,-0.000122,-0.003906,0.019531,0.035156,3.399733,,,
6086240000,0.999939,0.006042,0.011719,-0.000122,-0.003906,0.019531,-0.003906,3.414552,,,
6105435000,0.999939,0.006042,0.011719,-0.000122,-0.003906,-0.015625,0.035156,3.433747,6.02,2.68,4.95
6126549000,0.999939,0.006042,0.011719,-0.000122,-0.003906,-0.015625,0.035156,3.454861,,,
6152336000,0.999939,0.006042,0.011719,-0.000122,-0.042969,-0.015625,-0.011719,3.480648,,,
6165687000,0.999939,0.006042,0.011719,-0.000122,-0.003906,-0.015625,-0.011719,3.493999,,,
6185158000,0.999939,0.006042,0.011719,-0.000122,-0.003906,-0.015625,-0.011719,3.51347,,,
6215519000,0.999939,0.006042,0.011719,-0.000122,-0.003906,0.019531,0.027344,3.543831,,,
6231002000,0.999939,0.006042,0.011719,-0.000122,-0.003906,0.019531,-0.011719,3.559314,,,
6245100000,0.999939,0.006042,0.011719,-0.000122,-0.003906,-0.015625,-0.011719,3.573412,,,
6270146000,0.999939,0.006042,0.011719,-0.000122,-0.003906,0.019531,0.027344,3.598458,,,
6284650000,0.999939,0.006042,0.011719,-0.000122,-0.003906,-0.015625,0.027344,3.612962,,,
6304800000,0.999939,0.006042,0.011719,-0.000122,-0.003906,0.019531,-0.011719,3.633112,6.04,2.65,4.94
6325135000,0.999939,0.006042,0.011719,-0.000122,0.035156,0.019531,-0.050781,3.653447,,,
6348249000,0.999939,0.006042,0.011719,-0.000122,-0.042969,0.019531,-0.050781,3.676561,,,
6364570000,0.999939,0.006042,0.011719,-0.000122,-0.003906,0.019531,0.027344,3.692882,,,
6385011000,0.999939,0.006042,0.011719,-0.000122,-0.003906,0.019531,0.027344,3.713323,,,
6404843000,0.999939,0.006042,0.011719,-0.000122,-0.003906,0.019531,-0.011719,3.733155,,,
6426778000,0.999939,0.006042,0.011719,-0.000122,-0.042969,-0.015625,0.027344,3.75509,,,
6444517000,0.999939,0.006042,0.011719,-0.000122,-0.003906,-0.015625,-0.011719,3.772829,,,
6465143000,0.999939,0.006042,0.011719,-0.000122,-0.003906,-0.015625,-0.003906,3.793455,,,
6484607000,0.999939,0.006042,0.011719,-0.000122,-0.003906,-0.015625,0.035156,3.812919,,,
6509694000,0.999939,0.006042,0.011719,-0.000122,-0.003906,0.019531,0.035156,3.838006,6.03,2.67,4.96
6524174000,0.999939,0.006042,0.011719,-0.000122,-0.003906,0.019531,-0.003906,3.852486,,,
6544531000,0.999939,0.006042,0.011719,-0.000122,-0.003906,0.019531,-0.003906,3.872843,,,
6564957000,0.999939,0.006042,0.011719,-0.000122,-0.003906,0.019531,0.035156,3.893269,,,
6587645000,0.999939,0.006042,0.011719,-0.000122,-0.003906,0.019531,-0.003906,3.915957,,,
6604542000,0.999939,0.006042,0.011719,-0.000122,-0.003906,0.011719,-0.003906,3.932854,,,
6623946000,0.999939,0.006042,0.011719,-0.000122,-0.003906,-0.023438,-0.003906,3.952258,,,
6645858000,0.999939,0.006042,0.011719,-0.000122,-0.003906,-0.023438,-0.003906,3.97417,,,
6674065000,0.999939,0.006042,0.011719,-0.000122,-0.003906,-0.023438,-0.003906,4.002377,,,
6684521000,0.999939,0.006042,0.011719,-0.000122,-0.003906,-0.015625,-0.003906,4.012833,,,
6704009000,0.999939,0.006042,0.011719,-0.000122,-0.003906,-0.015625,-0.003906,4.032321,6.02,2.7,4.94
6724314000,0.999939,0.006042,0.011719,-0.000122,-0.003906,-0.015625,-0.003906,4.052626,,,
6750517000,0.999939,0.006042,0.011719,-0.000122,-0.003906,-0.015625,-0.003906,4.078829,,,
6764091000,0.999939,0.006042,0.011719,-0.000122,-0.003906,-0.015625,-0.003906,4.092403,,,
6783398000,0.999939,0.006042,0.011719,-0.000122,-0.003906,0.019531,-0.003906,4.11171,,,
6804471000,0.999939,0.006042,0.011719,-0.000122,-0.003906,-0.015625,0.035156,4.132783,,,
6829037000,0.999939,0.006042,0.011719,-0.000122,-0.003906,0.019531,-0.003906,4.157349,,,
6843632000,0.999939,0.006042,0.011719,-0.000122,-0.003906,0.019531,0.035156,4.171944,,,
6863316000,0.999939,0.006042,0.011719,-0.000122,-0.003906,0.019531,0.035156,4.191628,,,
6887649000,0.999939,0.006042,0.011719,-0.000122,-0.003906,-0.015625,-0.003906,4.215961,,,
6903111000,0.999939,0.006042,0.011719,-0.000122,-0.003906,-0.015625,-0.003906,4.231423,6.02,2.69,4.98
6923078000,0.999939,0.006042,0.011719,-0.000122,-0.003906,0.019531,-0.003906,4.25139,,,
6944302000,0.999939,0.006042,0.011719,-0.000122,-0.003906,0.019531,-0.003906,4.272614,,,
6968107000,0.999939,0.006042,0.011719,-0.000122,-0.003906,0.019531,0.027344,4.296419,,,
6983260000,0.999939,0.006042,0.011719,-0.000122,-0.003906,0.011719,-0.011719,4.311572,,,
7002810000,0.999939,0.006042,0.011719,-0.000122,-0.003906,0.011719,0.027344,4.331122,,,
7023385000,0.999939,0.006042,0.011719,-0.000122,-0.003906,0.011719,-0.011719,4.351697,,,
7048167000,0.999939,0.006042,0.011719,-0.000122,-0.003906,-0.023438,-0.011719,4.376479,,,
7063449000,0.999939,0.006042,0.011719,-0.000122,-0.003906,0.011719,-0.011719,4.391761,,,
7082711000,0.999939,0.006042,0.011719,-0.000122,-0.003906,-0.023438,-0.011719,4.411023,,,
7103596000,0.999939,0.006042,0.011719,-0.000122,-0.042969,0.011719,-0.011719,4.431908,6.02,2.72,4.91
7128297000,0.999939,0.006042,0.011719,-0.000122,-0.003906,-0.023438,-0.011719,4.456609,,,
7142800000,0.999939,0.006042,0.011719,-0.000122,-0.003906,0.011719,0.027344,4.471112,,,
7162422000,0.999939,0.006042,0.011719,-0.000122,-0.003906,0.011719,-0.011719,4.490734,,,
7182407000,0.999939,0.006042,0.011719,-0.000122,0.035156,-0.023438,0.027344,4.510719,,,
7212381000,0.999939,0.006042,0.011719,-0.000122,-0.003906,-0.023438,0.027344,4.540693,,,
7222806000,0.999939,0.006042,0.011719,-0.000122,-0.003906,0.011719,0.027344,4.551118,,,
7242921000,0.999939,0.006042,0.011719,-0.000122,-0.003906,0.011719,0.019531,4.571233,,,
7273118000,0.999939,0.006042,0.011719,-0.000122,-0.003906,0.011719,0.019531,4.60143,,,
7282225000,0.999939,0.006042,0.011719,-0.000122,-0.003906,0.011719,-0.019531,4.610537,,,
7302038000,0.999939,0.006042,0.011719,-0.000122,-0.003906,-0.023438,0.019531,4.63035,6.03,2.67,4.96
7322522000,0.999939,0.006042,0.011719,-0.000122,-0.003906,0.011719,-0.019531,4.650834,,,
7351850000,0.999939,0.006042,0.011719,-0.000122,-0.003906,0.011719,0.019531,4.680162,,,
7368016000,0.999939,0.006042,0.011719,-0.000122,-0.003906,-0.023438,0.019531,4.696328,,,
7382187000,0.999939,0.006042,0.011719,-0.000122,-0.003906,0.011719,-0.019531,4.710499,,,
7402173000,0.999939,0.006042,0.011719,-0.000122,-0.003906,-0.023438,0.019531,4.730485,,,
7422727000,0.999939,0.006042,0.011719,-0.000122,-0.003906,0.011719,-0.019531,4.751039,,,
7446680000,0.999939,0.006104,0.011719,-0.000122,-0.003906,-0.023438,-0.019531,4.774992,,,
7465088000,0.999939,0.006104,0.01178,-0.000122,-0.003906,-0.023438,0.058594,4.7934,,,
7481604000,0.999939,0.006104,0.01178,-0.000122,-0.042969,-0.023438,-0.058594,4.809916,,,
7502652000,0.999939,0.006104,0.01178,-0.000122,0.003906,-0.0625,0.058594,4.830964,6.03,2.69,4.95
7521512000,0.999939,0.006104,0.01178,-0.000122,-0.003906,0.050781,-0.019531,4.849824,,,
7541280000,0.999939,0.006042,0.01178,-0.000122,-0.003906,0.050781,-0.019531,4.869592,,,
7562549000,0.999939,0.006042,0.01178,-0.000122,0.042969,-0.023438,0.019531,4.890861,,,
7586227000,0.999939,0.006042,0.01178,-0.000122,0.003906,-0.023438,-0.019531,4.914539,,,
7601576000,0.999939,0.006104,0.01178,-0.000122,0.003906,-0.023438,0.019531,4.929888,,,
7621749000,0.999939,0.006042,0.01178,-0.000183,0.003906,0.011719,-0.019531,4.950061,,,
7650964000,0.999939,0.006042,0.01178,-0.000183,0.003906,-0.023438,0.019531,4.979276,,,
7672061000,0.999939,0.006042,0.01178,-0.000183,0.003906,-0.023438,-0.019531,5.000373,,,
7680945000,0.999939,0.006042,0.01178,-0.000183,0.003906,-0.023438,-0.019531,5.009257,,,
7702320000,0.999939,0.006042,0.01178,-0.000183,0.003906,0.019531,-0.011719,5.030632,6.03,2.69,4.95
7727577000,0.999939,0.006042,0.01178,-0.000183,0.003906,0.011719,-0.011719,5.055889,,,
7741297000,0.999939,0.006042,0.01178,-0.000183,0.003906,-0.023438,-0.011719,5.069609,,,
7761339000,0.999939,0.006042,0.01178,-0.000122,-0.003906,-0.015625,0.027344,5.089651,,,
7782044000,0.999939,0.00592,0.011841,-0.000122,-0.003906,0.019531,0.027344,5.110356,,,
7810802000,0.999939,0.00592,0.011841,-0.000122,-0.003906,0.019531,-0.011719,5.139114,,,
7820663000,0.999939,0.00592,0.011841,-0.000183,-0.042969,0.019531,0.027344,5.148975,,,
7841627000,0.999939,0.005859,0.011841,-0.000122,-0.003906,-0.015625,0.019531,5.169939,,,
7870763000,0.999939,0.005859,0.011841,-0.000122,-0.003906,-0.015625,0.019531,5.199075,,,
7886297000,0.999939,0.005798,0.011841,-0.000122,-0.003906,-0.015625,-0.019531,5.214609,,,
7901238000,0.999939,0.005737,0.011841,-0.000122,-0.003906,-0.007812,-0.019531,5.22955,6.03,2.66,4.9
7921086000,0.999939,0.005737,0.011841,-0.000122,-0.003906,-0.007812,0.019531,5.249398,,,
7941174000,0.999939,0.005737,0.01178,-0.000122,0.035156,0.027344,0.019531,5.269486,,,
7970200000,0.999939,0.005737,0.01178,-0.000122,-0.003906,-0.007812,-0.019531,5.298512,,,
7980547000,0.999939,0.005737,0.01178,-6.1e-05,-0.042969,-0.007812,-0.019531,5.308859,,,
8000741000,0.999939,0.005737,0.01178,-0.000122,-0.003906,-0.007812,0.019531,5.329053,,,
8020619000,0.999939,0.005737,0.01178,-6.1e-05,-0.003906,-0.007812,-0.019531,5.348931,,,
8040946000,0.999939,0.005737,0.01178,-6.1e-05,-0.003906,-0.007812,0.019531,5.369258,,,
8060498000,0.999939,0.005737,0.01178,-0.000122,-0.003906,-0.007812,0.019531,5.38881,,,
8080809000,0.999939,0.005737,0.01178,-0.000122,-0.003906,0.027344,-0.019531,5.409121,,,
8100480000,0.999939,0.005737,0.01178,-6.1e-05,-0.003906,-0.007812,-0.019531,5.428792,6.01,2.6,4.89
8130182000,0.999939,0.005737,0.01178,-6.1e-05,-0.003906,-0.007812,-0.019531,5.458494,,,
8139960000,0.999939,0.005737,0.01178,-6.1e-05,-0.003906,0.027344,0.019531,5.468272,,,
8161247000,0.999939,0.005737,0.01178,-6.1e-05,-0.003906,0.027344,-0.019531,5.489559,,,
8189481000,0.999939,0.005798,0.01178,-6.1e-05,-0.003906,-0.007812,-0.019531,5.517793,,,
8198212000,0.999939,0.005798,0.01178,-6.1e-05,-0.003906,-0.007812,0.019531,5.526524,,,
8219062000,0.999939,0.005798,0.011841,-6.1e-05,-0.003906,-0.007812,0.019531,5.547374,,,
8238983000,0.999939,0.005798,0.011841,-6.1e-05,-0.003906,-0.007812,0.019531,5.567295,,,
8260143000,0.999939,0.005737,0.011841,-6.1e-05,-0.003906,-0.007812,-0.019531,5.588455,,,
8286316000,0.999939,0.005798,0.011841,-6.1e-05,-0.003906,-0.007812,-0.019531,5.614628,,,
8300539000,0.999939,0.005737,0.011841,-6.1e-05,-0.003906,-0.007812,0.019531,5.628851,6.01,2.7,4.9
8319785000,0.999939,0.005737,0.011841,-6.1e-05,-0.003906,0.027344,0.019531,5.648097,,,
8341014000,0.999939,0.005798,0.011841,-6.1e-05,-0.003906,-0.007812,0.019531,5.669326,,,
8359561000,0.999939,0.005798,0.011841,-6.1e-05,-0.003906,-0.007812,0.019531,5.687873,,,
8379396000,0.999939,0.005798,0.011841,-6.1e-05,-0.003906,-0.007812,-0.019531,5.707708,,,
8399957000,0.999939,0.005798,0.01178,-6.1e-05,-0.003906,-0.007812,-0.019531,5.728269,,,
8428959000,0.999939,0.005798,0.01178,-6.1e-05,-0.003906,0.027344,0.019531,5.757271,,,
8445403000,0.999939,0.005798,0.01178,-6.1e-05,-0.003906,-0.007812,-0.019531,5.773715,,,
8459354000,0.999939,0.005737,0.01178,-6.1e-05,-0.003906,0.027344,0.019531,5.787666,,,
8479899000,0.999939,0.005737,0.01178,-6.1e-05,-0.003906,-0.007812,-0.019531,5.808211,,,
8499245000,0.999939,0.005798,0.011841,-6.1e-05,-0.003906,0.027344,-0.019531,5.827557,5.97,2.69,4.93
8520064000,0.999939,0.005798,0.011841,0.0,-0.003906,0.019531,0.019531,5.848376,,,
8540400000,0.999939,0.005798,0.01178,-6.1e-05,-0.003906,-0.015625,0.019531,5.868712,,,
8560230000,0.999939,0.005737,0.01178,-6.1e-05,-0.003906,-0.015625,-0.019531,5.888542,,,
8591100000,0.999939,0.005737,0.01178,-6.1e-05,-0.011719,-0.015625,-0.019531,5.919412,,,
8605899000,0.999939,0.005737,0.01178,-6.1e-05,-0.011719,-0.015625,0.019531,5.934211,,,
8619190000,0.999939,0.005737,0.01178,0.0,-0.011719,0.019531,0.019531,5.947502,,,
8639415000,0.999939,0.005737,0.01178,0.0,-0.011719,-0.015625,-0.019531,5.967727,,,
8669057000,0.999939,0.005737,0.01178,-6.1e-05,-0.011719,0.019531,0.019531,5.997369,,,
8688922000,0.999939,0.005737,0.01178,-6.1e-05,-0.011719,0.019531,0.019531,6.017234,,,
8698649000,0.999939,0.005737,0.01178,-6.1e-05,-0.011719,-0.015625,0.019531,6.026961,,,
8718967000,0.999939,0.005737,0.01178,-6.1e-05,-0.003906,-0.015625,0.019531,6.047279,6.0,2.65,4.91
8740184000,0.999939,0.005798,0.01178,-6.1e-05,-0.003906,-0.015625,-0.019531,6.068496,,,
8764206000,0.999939,0.005798,0.01178,-6.1e-05,0.035156,0.011719,-0.019531,6.092518,,,
8778856000,0.999939,0.005798,0.011841,-6.1e-05,0.035156,0.011719,-0.019531,6.107168,,,
8799007000,0.999939,0.005859,0.011841,-6.1e-05,-0.003906,0.011719,-0.011719,6.127319,,,
8820810000,0.999939,0.005859,0.011841,-6.1e-05,-0.003906,-0.023438,0.027344,6.149122,,,
8847558000,0.999939,0.005859,0.011841,-6.1e-05,-0.042969,-0.023438,0.027344,6.17587,,,
8858424000,0.999939,0.005859,0.011841,-6.1e-05,-0.003906,0.011719,-0.011719,6.186736,,,
8890244000,0.999939,0.005859,0.011841,-6.1e-05,-0.003906,0.011719,-0.011719,6.218556,,,
8907430000,0.999939,0.005859,0.011841,-6.1e-05,-0.003906,-0.023438,-0.011719,6.235742,6.0,2.64,4.96
8917743000,0.999939,0.005859,0.011841,-6.1e-05,-0.003906,-0.023438,-0.011719,6.246055,,,
8939053000,0.999939,0.005859,0.011841,-6.1e-05,-0.003906,0.011719,-0.011719,6.267365,,,
8958590000,0.999939,0.005859,0.011841,-6.1e-05,-0.003906,-0.023438,-0.011719,6.286902,,,
8987442000,0.999939,0.005859,0.011841,-6.1e-05,-0.003906,-0.023438,-0.011719,6.315754,,,
8997292000,0.999939,0.005859,0.011841,-6.1e-05,-0.003906,0.011719,0.027344,6.325604,,,
9018692000,0.999939,0.005859,0.011841,-6.1e-05,-0.003906,-0.023438,0.027344,6.347004,,,
9039448000,0.999939,0.00592,0.011841,-6.1e-05,-0.003906,-0.015625,0.027344,6.36776,,,
9066957000,0.999939,0.005859,0.011841,-6.1e-05,-0.003906,-0.015625,-0.011719,6.395269,,,
9077202000,0.999939,0.005859,0.011841,-6.1e-05,-0.003906,-0.015625,0.027344,6.405514,,,
9098662000,0.999939,0.005859,0.011841,-6.1e-05,-0.003906,0.058594,-0.011719,6.426974,,,
9118671000,0.999939,0.005859,0.011841,-6.1e-05,-0.003906,-0.015625,-0.011719,6.446983,6.04,2.64,4.93
9146856000,0.999939,0.005859,0.011963,-6.1e-05,-0.003906,0.019531,-0.011719,6.475168,,,
9157491000,0.999939,0.005859,0.012024,0.0,0.035156,-0.054688,0.101562,6.485803,,,
9187447000,0.999939,0.005554,0.012085,0.000977,0.148438,-0.132812,-0.128906,6.515759,,,
9206151000,0.999939,0.005188,0.012085,0.002441,0.648438,-1.003906,0.027344,6.534463,,,
9218554000,0.999878,0.004395,0.012024,0.006775,0.976562,-1.257812,0.140625,6.546866,,,
9247246000,0.999878,0.002441,0.012146,0.012329,-0.507812,0.804688,-0.128906,6.575558,,,
9263776000,0.999817,0.001892,0.012207,0.013,-0.394531,0.820312,-0.011719,6.592088,,,
9278521000,0.999817,0.000977,0.012329,0.013977,-0.085938,0.335938,-0.089844,6.606833,,,
9298843000,0.999817,6.1e-05,0.01239,0.014404,-0.09375,0.085938,-0.011719,6.627155,6.09,2.62,4.92
9326567000,0.999817,-0.001038,0.012451,0.015137,0.371094,-0.230469,-0.089844,6.654879,,,
9337231000,0.999817,-0.001587,0.012512,0.015564,0.21875,-0.183594,0.066406,6.665543,,,
9368840000,0.999756,-0.003662,0.012634,0.017029,0.496094,-0.21875,0.027344,6.697152,,,
9386523000,0.999756,-0.005188,0.012878,0.01825,0.179688,0.085938,-0.011719,6.714835,,,
9403452000,0.999695,-0.005737,0.012939,0.019165,0.570312,-0.171875,0.066406,6.731764,,,
9418432000,0.999634,-0.006531,0.013062,0.021545,0.53125,-0.042969,0.027344,6.746744,,,
9446817000,0.999512,-0.008057,0.013245,0.026062,0.082031,0.027344,-0.058594,6.775129,,,
9466444000,0.999451,-0.009277,0.013428,0.029175,0.082031,0.011719,-0.171875,6.794756,,,
9485945000,0.999329,-0.010132,0.01355,0.032837,0.128906,-0.117188,-0.128906,6.814257,,,
9497155000,0.999268,-0.010559,0.013611,0.034546,0.195312,-0.003906,-0.164062,6.825467,,,
9527063000,0.999146,-0.013184,0.01416,0.037292,-0.667969,0.003906,0.179688,6.855375,6.09,2.71,4.95
9546054000,0.999084,-0.013672,0.01416,0.038696,-0.632812,0.183594,0.066406,6.874366,,,
9566172000,0.999023,-0.014465,0.014343,0.039673,-0.210938,0.191406,0.101562,6.894484,,,
9577268000,0.998962,-0.014709,0.014465,0.040039,-0.046875,0.207031,-0.050781,6.90558,,,
9606689000,0.998962,-0.015686,0.014526,0.040894,0.105469,0.066406,-0.050781,6.935001,,,
9625921000,0.998901,-0.015991,0.014526,0.041321,-0.652344,0.152344,-0.011719,6.954233,,,
9645594000,0.998901,-0.015991,0.014709,0.041565,-0.539062,0.074219,0.21875,6.973906,,,
9665377000,0.998901,-0.016174,0.014709,0.041565,-0.425781,-0.03125,0.027344,6.993689,,,
9685933000,0.998901,-0.016602,0.014893,0.041565,-0.078125,0.160156,0.066406,7.014245,,,
9710268000,0.998901,-0.016663,0.014954,0.041565,-0.300781,0.054688,-0.011719,7.03858,6.09,2.72,4.96
9725358000,0.998901,-0.016724,0.015137,0.041504,0.082031,0.015625,0.140625,7.05367,,,
9745825000,0.998901,-0.016907,0.015442,0.041443,-0.03125,0.015625,0.027344,7.074137,,,
9765369000,0.99884,-0.017029,0.015808,0.041565,0.003906,0.015625,0.101562,7.093681,,,
9791966000,0.99884,-0.01709,0.016113,0.041565,-0.132812,0.105469,-0.089844,7.120278,,,
9805238000,0.99884,-0.017212,0.016418,0.041565,-0.085938,0.03125,-0.011719,7.13355,,,
9825529000,0.99884,-0.017334,0.01709,0.041565,0.226562,0.03125,0.21875,7.153841,,,
9846840000,0.99884,-0.017517,0.018005,0.041565,0.359375,0.03125,0.140625,7.175152,,,
9870852000,0.998779,-0.017395,0.019348,0.041565,0.957031,0.03125,0.109375,7.199164,,,
9885056000,0.998779,-0.017212,0.020325,0.041565,-0.507812,0.320312,0.035156,7.213368,,,
9905351000,0.998779,-0.017212,0.020264,0.041443,0.238281,0.082031,-0.503906,7.233663,6.05,2.76,4.9
9928205000,0.998779,-0.017151,0.019775,0.041199,-0.652344,-0.222656,0.265625,7.256517,,,
9950674000,0.99884,-0.016968,0.019592,0.041016,-0.238281,-0.136719,-0.082031,7.278986,,,
9964555000,0.99884,-0.016846,0.019287,0.040894,0.863281,-0.070312,-0.042969,7.292867,,,
9985246000,0.99884,-0.017822,0.018005,0.040527,0.445312,0.320312,-0.273438,7.313558,,,
10005825000,0.998962,-0.016846,0.015259,0.039734,-1.265625,-0.046875,4.316406,7.334137,,,
10032485000,0.998962,-0.01709,0.01532,0.038696,0.6875,0.734375,0.5625,7.360797,,,
10045075000,0.999023,-0.017578,0.015259,0.038269,-0.078125,-0.117188,0.292969,7.373387,,,
10065180000,0.998962,-0.017761,0.015259,0.038391,-0.539062,-0.253906,0.066406,7.393492,,,
10084809000,0.998962,-0.0177,0.015198,0.03894,0.082031,-0.09375,0.179688,7.413121,,,
10108797000,0.998962,-0.017456,0.015076,0.039795,-0.222656,0.089844,0.179688,7.437109,5.97,2.75,4.96
10124517000,0.998901,-0.017212,0.015076,0.040527,-0.070312,0.121094,-0.171875,7.452829,,,
10154755000,0.998901,-0.017273,0.015015,0.040222,0.042969,0.082031,0.09375,7.483067,,,
10164158000,0.998962,-0.017273,0.014954,0.040039,0.160156,0.273438,-0.210938,7.49247,,,
10184184000,0.998962,-0.017212,0.014832,0.039673,-0.222656,0.007812,0.25,7.512496,,,
10204571000,0.998962,-0.017517,0.014832,0.039429,-0.148438,0.007812,0.210938,7.532883,,,
10234330000,0.998962,-0.017456,0.014771,0.039307,-0.222656,0.015625,-0.019531,7.562642,,,
10251458000,0.998962,-0.017578,0.014709,0.039429,-0.148438,-0.023438,0.019531,7.57977,,,
10263946000,0.998962,-0.017639,0.014771,0.039673,-0.300781,0.054688,-0.171875,7.592258,,,
10284128000,0.998962,-0.017822,0.014771,0.039734,-0.261719,0.097656,-0.097656,7.61244,,,
10303664000,0.998962,-0.0177,0.014648,0.039551,-0.300781,0.089844,0.132812,7.631976,6.0,2.73,4.97
10333743000,0.998962,-0.017639,0.014526,0.039001,-0.070312,0.054688,0.09375,7.662055,,,
10348854000,0.998962,-0.017578,0.014526,0.03894,0.378906,-0.0625,0.058594,7.677166,,,
10363676000,0.998962,-0.0177,0.014526,0.038879,-0.117188,0.054688,0.09375,7.691988,,,
10383907000,0.998962,-0.017517,0.014404,0.039001,0.152344,-0.023438,0.019531,7.712219,,,
10405141000,0.998962,-0.017334,0.014404,0.039246,0.34375,0.054688,0.058594,7.733453,,,
10430328000,0.998962,-0.017517,0.014404,0.039062,0.074219,0.082031,0.058594,7.75864,,,
10443570000,0.999023,-0.017517,0.014221,0.038452,0.304688,0.089844,-0.171875,7.771882,,,
10463352000,0.999023,-0.017517,0.014282,0.037781,0.496094,0.007812,0.210938,7.791664,,,
10483784000,0.999023,-0.017761,0.013977,0.037842,-0.269531,0.082031,0.25,7.812096,,,
10507549000,0.999023,-0.017822,0.014038,0.038574,-0.15625,-0.0625,0.25,7.835861,,,
10523461000,0.999023,-0.017456,0.014221,0.038635,-0.777344,-0.070312,-0.027344,7.851773,,,
10543624000,0.998962,-0.017761,0.015442,0.03833,-0.683594,0.199219,0.242188,7.871936,,,
10573743000,0.999023,-0.017456,0.015564,0.037476,-1.113281,-0.183594,-0.71875,7.902055,,,
10583268000,0.999023,-0.017639,0.015564,0.037415,-1.65625,-0.144531,0.242188,7.91158,,,
10603025000,0.999023,-0.017639,0.015503,0.037415,-0.085938,-0.144531,-0.066406,7.931337,,,
10625309000,0.999023,-0.017761,0.015503,0.037415,0.027344,0.121094,0.164062,7.953621,,,
10642678000,0.999023,-0.017639,0.015442,0.037415,-0.046875,0.007812,-0.027344,7.97099,,,
10662820000,0.999023,-0.0177,0.015442,0.037415,-0.015625,0.082031,0.050781,7.991132,,,
10682611000,0.999023,-0.017761,0.015442,0.037354,0.210938,0.082031,0.050781,8.010923,,,
10703240000,0.999023,-0.017517,0.015442,0.03717,0.449219,-0.03125,0.011719,8.031552,,,
10725039000,0.999023,-0.017395,0.015381,0.037048,0.183594,0.039062,0.011719,8.053351,,,
10742584000,0.999023,-0.017395,0.015381,0.037292,0.144531,-0.078125,0.050781,8.070896,,,
10762697000,0.999023,-0.017456,0.01532,0.037781,-0.316406,0.152344,-0.066406,8.091009,,,
10782486000,0.999023,-0.017578,0.015259,0.038269,-0.007812,0.039062,-0.027344,8.110798,,,
10812883000,0.998962,-0.017578,0.015198,0.038818,-0.199219,0.074219,-0.027344,8.141195,,,
10826706000,0.998962,-0.017517,0.015259,0.038818,-0.085938,0.039062,0.050781,8.155018,,,
10842979000,0.998962,-0.017395,0.01532,0.038879,0.066406,0.0,0.050781,8.171291,,,
10862403000,0.998962,-0.017334,0.01532,0.03894,-0.191406,0.113281,-0.027344,8.190715,,,
10886271000,0.998962,-0.017151,0.015259,0.039001,0.113281,-0.039062,-0.027344,8.214583,,,
10901863000,0.998962,-0.017151,0.015198,0.039062,-0.046875,0.058594,-0.027344,8.230175,,,
10922904000,0.998962,-0.017151,0.015137,0.039062,-0.277344,0.023438,0.011719,8.251216,,,
10941996000,0.998962,-0.01709,0.015137,0.039062,0.410156,-0.015625,0.011719,8.270308,,,
10962540000,0.998962,-0.017212,0.015076,0.039124,0.640625,0.023438,0.085938,8.290852,,,
10982275000,0.998962,-0.017151,0.014954,0.039185,0.144531,-0.015625,0.011719,8.310587,,,
11001644000,0.998962,-0.017273,0.014893,0.039246,-0.191406,0.097656,0.050781,8.329956,,,
11022312000,0.998962,-0.017273,0.014709,0.039246,-0.199219,0.058594,-0.105469,8.350624,,,
11048268000,0.998962,-0.016968,0.014282,0.039185,-0.621094,0.097656,0.011719,8.37658,,,
11061756000,0.999023,-0.016357,0.013794,0.039185,-0.9375,-0.023438,0.085938,8.390068,,,
11081361000,0.999023,-0.016418,0.013794,0.039246,0.050781,0.113281,0.125,8.409673,,,
11111413000,0.999023,-0.016541,0.013977,0.039185,-0.523438,0.113281,0.085938,8.439725,,,
11121389000,0.998962,-0.01709,0.014343,0.039062,-0.445312,0.199219,0.203125,8.449701,,,
11142127000,0.998962,-0.017151,0.014465,0.039001,-0.132812,-0.132812,-0.257812,8.470439,,,
11161552000,0.998962,-0.017273,0.014526,0.039001,0.328125,0.136719,0.125,8.489864,,,
11183240000,0.998962,-0.017395,0.014587,0.039001,0.097656,0.097656,0.050781,8.511552,,,
11206641000,0.998962,-0.017395,0.014587,0.039001,-0.007812,0.023438,0.011719,8.534953,,,
11221562000,0.998962,-0.017395,0.014709,0.039001,0.0,0.058594,0.011719,8.549874,,,
11241678000,0.998962,-0.017517,0.014771,0.03894,0.0,0.023438,0.011719,8.56999,,,
11262000000,0.998962,-0.017639,0.014771,0.038757,0.152344,0.105469,0.050781,8.590312,,,
11286913000,0.999023,-0.017395,0.014587,0.038269,-0.117188,0.058594,0.085938,8.615225,,,
11301466000,0.999023,-0.017517,0.014587,0.037781,0.074219,0.058594,0.050781,8.629778,,,
11321203000,0.999023,-0.016968,0.01416,0.037537,-0.347656,-0.015625,-0.066406,8.649515,,,
11341502000,0.999023,-0.016968,0.01416,0.037476,-0.394531,0.050781,0.203125,8.669814,,,
11360541000,0.999023,-0.01709,0.014221,0.037476,-0.046875,-0.023438,-0.066406,8.688853,,,
11380627000,0.999084,-0.016968,0.014099,0.037476,-0.007812,0.015625,-0.027344,8.708939,,,
11400653000,0.999023,-0.01709,0.01416,0.037476,-0.007812,0.050781,0.011719,8.728965,,,
11420653000,0.999084,-0.017029,0.014099,0.037476,-0.007812,0.007812,-0.027344,8.748965,,,
11441148000,0.999023,-0.01709,0.014099,0.037476,-0.054688,0.042969,0.011719,8.76946,,,
11460677000,0.999084,-0.016968,0.014038,0.037476,-0.054688,0.042969,0.011719,8.788989,,,
11480978000,0.999023,-0.017029,0.014038,0.037476,-0.015625,0.082031,0.011719,8.80929,,,
11510618000,0.999023,-0.017151,0.014099,0.037476,-0.007812,0.042969,0.011719,8.83893,,,
11520819000,0.999023,-0.017151,0.014099,0.037476,-0.007812,0.042969,0.011719,8.849131,,,
11540047000,0.999023,-0.01709,0.014099,0.037476,-0.007812,0.042969,0.050781,8.868359,,,
11570476000,0.999023,-0.017151,0.014099,0.037415,-0.007812,0.007812,0.011719,8.898788,,,
11580087000,0.999023,-0.017151,0.014099,0.037415,-0.007812,0.042969,0.050781,8.908399,,,
11600324000,0.999023,-0.017151,0.014099,0.037415,-0.007812,0.042969,0.011719,8.928636,,,
11619933000,0.999023,-0.017151,0.014099,0.037415,-0.007812,0.007812,0.011719,8.948245,,,
11650265000,0.999084,-0.017151,0.014038,0.037415,-0.007812,0.042969,0.011719,8.978577,,,
11665196000,0.999084,-0.017151,0.014038,0.037415,0.050781,0.003906,0.003906,8.993508,,,
11685050000,0.999084,-0.01709,0.014038,0.037354,0.015625,0.003906,0.003906,9.013362,,,
11700583000,0.999084,-0.017151,0.014099,0.037354,0.015625,0.003906,0.003906,9.028895,,,
11720284000,0.999084,-0.017151,0.014099,0.037415,0.015625,0.003906,0.003906,9.048596,,,
11740731000,0.999084,-0.017151,0.014099,0.037354,0.015625,0.003906,0.003906,9.069043,,,
11770073000,0.999084,-0.017029,0.014038,0.037415,0.007812,0.003906,0.003906,9.098385,,,
11780138000,0.999084,-0.016968,0.014038,0.037354,0.007812,0.003906,0.003906,9.10845,,,
11800306000,0.999084,-0.016968,0.013977,0.037354,0.007812,0.003906,-0.035156,9.128618,,,
11821450000,0.999084,-0.016968,0.013977,0.037354,0.007812,0.003906,0.003906,9.149762,,,
11844655000,0.999084,-0.016907,0.013916,0.037354,0.007812,-0.003906,-0.035156,9.172967,,,
11860069000,0.999084,-0.016907,0.013916,0.037354,0.007812,-0.003906,-0.035156,9.188381,,,
11879935000,0.999084,-0.016907,0.013916,0.037354,0.007812,0.035156,0.011719,9.208247,,,
11899864000,0.999084,-0.016846,0.013916,0.037354,0.007812,-0.011719,0.011719,9.228176,,,
11919944000,0.999084,-0.016846,0.013916,0.037292,0.042969,-0.011719,0.011719,9.248256,,,
11939957000,0.999084,-0.016846,0.013916,0.037292,0.007812,-0.011719,0.011719,9.268269,,,
11969726000,0.999084,-0.016846,0.013916,0.037354,0.0,-0.011719,0.011719,9.298038,,,
11979176000,0.999084,-0.016846,0.013916,0.037354,0.0,-0.011719,0.011719,9.307488,,,
11999993000,0.999084,-0.016846,0.013977,0.037292,-0.039062,-0.011719,0.011719,9.328305,,,
12019895000,0.999084,-0.016846,0.013977,0.037292,0.0,-0.011719,0.011719,9.348207,,,
12049780000,0.999084,-0.016907,0.013977,0.037354,0.0,-0.011719,0.011719,9.378092,,,
12059349000,0.999084,-0.016968,0.013977,0.037354,0.0,-0.011719,0.011719,9.387661,,,
12079623000,0.999084,-0.016968,0.013977,0.037354,0.0,-0.011719,0.011719,9.407935,,,
12108940000,0.999084,-0.016907,0.013977,0.037292,0.0,-0.003906,-0.027344,9.437252,,,
12124413000,0.999084,-0.016907,0.013977,0.037292,0.0,-0.003906,0.050781,9.452725,,,
12139138000,0.999084,-0.016907,0.013977,0.037292,0.0,-0.003906,0.011719,9.46745,,,
12160558000,0.999084,-0.016846,0.013977,0.037292,0.0,-0.003906,0.011719,9.48887,,,
12179276000,0.999084,-0.016846,0.013916,0.037292,0.0,-0.003906,0.011719,9.507588,,,
12199388000,0.999084,-0.016724,0.013916,0.037292,0.0,-0.003906,0.011719,9.5277,,,
12219221000,0.999084,-0.016724,0.013916,0.037292,0.0,-0.003906,0.011719,9.547533,,,
12248507000,0.999084,-0.016724,0.013916,0.037292,0.035156,-0.003906,0.003906,9.576819,,,
12258675000,0.999084,-0.016724,0.013916,0.037292,0.035156,-0.003906,0.003906,9.586987,,,
12288570000,0.999084,-0.016785,0.013977,0.037292,0.0,-0.003906,0.003906,9.616882,,,
12298236000,0.999084,-0.016785,0.013977,0.037292,0.0,-0.003906,0.003906,9.626548,,,
12319232000,0.999084,-0.016724,0.013977,0.037231,0.0,-0.003906,0.003906,9.647544,,,
12338957000,0.999084,-0.016724,0.013977,0.037231,0.0,-0.003906,0.003906,9.667269,,,
12368720000,0.999084,-0.016724,0.013916,0.037231,0.0,-0.003906,0.003906,9.697032,,,
12385651000,0.999084,-0.016724,0.013916,0.037292,0.0,-0.039062,0.003906,9.713963,,,
12398658000,0.999084,-0.016724,0.013916,0.037292,0.0,-0.003906,0.003906,9.72697,,,
12418747000,0.999084,-0.016724,0.013916,0.037292,0.0,-0.003906,0.003906,9.747059,,,
12447975000,0.999084,-0.016663,0.013916,0.037292,0.0,-0.003906,0.003906,9.776287,,,
12462635000,0.999084,-0.016663,0.013916,0.037292,0.0,-0.003906,0.003906,9.790947,,,
12478580000,0.999084,-0.016663,0.013916,0.037292,0.035156,-0.003906,0.003906,9.806892,,,
12498780000,0.999084,-0.016663,0.013916,0.037292,0.0,-0.003906,0.003906,9.827092,,,
12528042000,0.999084,-0.016724,0.013916,0.037292,0.035156,-0.003906,0.003906,9.856354,,,
12537988000,0.999084,-0.016724,0.013916,0.037292,0.0,-0.003906,0.042969,9.8663,,,
12558429000,0.999084,-0.016663,0.013916,0.037292,-0.039062,-0.003906,0.003906,9.886741,,,
12578826000,0.999084,-0.016663,0.013916,0.037292,0.0,-0.003906,0.003906,9.907138,,,
12598517000,0.999084,-0.016602,0.013916,0.037292,0.0,-0.003906,0.003906,9.926829,,,
12627736000,0.999084,-0.016663,0.013916,0.037292,0.0,-0.003906,0.003906,9.956048,,,
12637284000,0.999084,-0.016663,0.013916,0.037292,0.0,-0.003906,0.003906,9.965596,,,
12658458000,0.999084,-0.016663,0.013916,0.037292,0.0,-0.003906,0.003906,9.98677,,,
12687105000,0.999084,-0.016663,0.013916,0.037292,0.0,-0.003906,0.042969,10.015417,,,
12697204000,0.999084,-0.016663,0.013916,0.037292,0.0,-0.003906,0.003906,10.025516,,,
12718398000,0.999084,-0.016663,0.013916,0.037292,0.035156,-0.003906,0.003906,10.04671,,,
12738533000,0.999084,-0.016724,0.013977,0.037292,0.0,-0.003906,0.003906,10.066845,,,
12766972000,0.999084,-0.016724,0.013977,0.037292,0.0,-0.039062,0.003906,10.095284,,,
12777159000,0.999084,-0.016663,0.013977,0.037292,0.0,-0.003906,0.042969,10.105471,,,
12798493000,0.999084,-0.016663,0.013916,0.037231,0.0,-0.003906,0.003906,10.126805,,,
12818415000,0.999084,-0.016602,0.013916,0.037231,0.0,-0.003906,-0.035156,10.146727,,,
12838568000,0.999084,-0.016602,0.013916,0.037231,0.0,-0.003906,0.003906,10.16688,,,
12867412000,0.999084,-0.016541,0.013916,0.03717,0.035156,-0.003906,0.042969,10.195724,,,
12877117000,0.999084,-0.016541,0.013916,0.03717,0.0,-0.003906,0.003906,10.205429,,,
12898440000,0.999084,-0.016602,0.013916,0.037231,0.0,-0.039062,0.003906,10.226752,,,
12926550000,0.999084,-0.016602,0.013916,0.037231,0.0,-0.003906,-0.035156,10.254862,,,
12937174000,0.999084,-0.016602,0.013916,0.037231,0.0,-0.003906,0.003906,10.265486,,,
12966317000,0.999084,-0.016602,0.013916,0.037231,0.0,-0.003906,0.003906,10.294629,,,
12986688000,0.999084,-0.016541,0.013916,0.037231,0.0,-0.003906,0.003906,10.315,,,
13006523000,0.999084,-0.016541,0.013916,0.03717,0.0,-0.003906,-0.035156,10.334835,,,
13017177000,0.999084,-0.016541,0.013916,0.03717,0.035156,-0.003906,0.003906,10.345489,,,
13046506000,0.999084,-0.016479,0.013855,0.037231,-0.007812,-0.003906,0.003906,10.374818,,,
13066302000,0.999084,-0.016479,0.013855,0.037231,-0.007812,-0.039062,0.003906,10.394614,,,
13086172000,0.999084,-0.016479,0.013855,0.037231,-0.007812,-0.039062,0.003906,10.414484,,,
13110406000,0.999084,-0.016418,0.013855,0.037231,-0.007812,-0.011719,0.003906,10.438718,,,
13126396000,0.999084,-0.016479,0.013855,0.03717,-0.007812,-0.011719,0.003906,10.454708,,,
13146062000,0.999084,-0.016418,0.013855,0.03717,-0.007812,-0.011719,0.003906,10.474374,,,
13166849000,0.999084,-0.016418,0.013855,0.03717,-0.007812,-0.011719,0.003906,10.495161,,,
13190797000,0.999084,-0.016418,0.013855,0.03717,-0.007812,-0.011719,0.003906,10.519109,,,
13206217000,0.999084,-0.016479,0.013855,0.03717,0.0,-0.003906,0.003906,10.534529,,,
13226309000,0.999084,-0.016418,0.013855,0.03717,0.0,-0.003906,0.003906,10.554621,,,
13246571000,0.999084,-0.016418,0.013855,0.03717,0.0,-0.003906,0.003906,10.574883,,,
13268093000,0.999084,-0.016418,0.013855,0.03717,0.035156,-0.003906,-0.035156,10.596405,,,
13286493000,0.999084,-0.016357,0.013855,0.03717,0.0,-0.003906,-0.035156,10.614805,,,
13305681000,0.999084,-0.016296,0.013794,0.03717,0.0,-0.039062,0.003906,10.633993,,,
13325630000,0.999084,-0.016296,0.013794,0.03717,0.0,-0.003906,0.003906,10.653942,,,
13351549000,0.999084,-0.016296,0.013855,0.03717,0.0,-0.003906,0.003906,10.679861,,,
13366113000,0.999084,-0.016296,0.013794,0.03717,0.0,-0.003906,0.003906,10.694425,,,
13385524000,0.999084,-0.016296,0.013855,0.03717,0.0,-0.003906,0.003906,10.713836,,,
13406710000,0.999084,-0.016296,0.013855,0.037231,0.0,-0.003906,-0.035156,10.735022,,,
13431213000,0.999084,-0.016357,0.013916,0.037231,0.0,-0.003906,0.003906,10.759525,,,
13445485000,0.999084,-0.016357,0.013916,0.037231,0.0,-0.003906,0.003906,10.773797,,,
13465629000,0.999084,-0.016357,0.013916,0.037231,-0.039062,-0.003906,0.003906,10.793941,,,
13485575000,0.999084,-0.016296,0.013916,0.03717,0.0,-0.003906,0.003906,10.813887,,,
13511392000,0.999084,-0.016235,0.013855,0.03717,0.0,-0.003906,0.003906,10.839704,,,
13525475000,0.999084,-0.016174,0.013855,0.03717,0.0,-0.003906,0.003906,10.853787,,,
13545783000,0.999084,-0.016174,0.013794,0.03717,0.0,-0.003906,-0.035156,10.874095,,,
13565150000,0.999084,-0.016174,0.013794,0.03717,0.0,-0.003906,0.003906,10.893462,,,
13590538000,0.999084,-0.016174,0.013855,0.03717,0.007812,-0.003906,0.003906,10.91885,,,
13605218000,0.999084,-0.016174,0.013794,0.037109,0.007812,-0.003906,0.003906,10.93353,,,
13625182000,0.999084,-0.016174,0.013794,0.037109,0.007812,-0.003906,0.003906,10.953494,,,
13645628000,0.999084,-0.016113,0.013794,0.037109,0.007812,-0.003906,-0.035156,10.97394,,,
13669762000,0.999084,-0.016113,0.013794,0.037109,0.007812,-0.003906,0.003906,10.998074,,,
13685305000,0.999084,-0.016113,0.013794,0.037109,0.007812,-0.003906,-0.035156,11.013617,,,
13704522000,0.999084,-0.016174,0.013855,0.03717,0.007812,-0.003906,0.003906,11.032834,,,
13725076000,0.999084,-0.016235,0.013855,0.037109,0.007812,-0.003906,0.003906,11.053388,,,
13748055000,0.999084,-0.016235,0.013855,0.037109,0.007812,-0.003906,0.003906,11.076367,,,
13764595000,0.999084,-0.016174,0.013794,0.037109,0.007812,-0.039062,-0.035156,11.092907,,,
13784732000,0.999084,-0.016174,0.013794,0.037109,0.007812,-0.003906,0.003906,11.113044,,,
13804695000,0.999084,-0.016174,0.013794,0.037109,0.042969,-0.003906,0.042969,11.133007,,,
13826101000,0.999084,-0.016113,0.013794,0.037109,0.007812,-0.003906,0.003906,11.154413,,,
13844562000,0.999084,-0.016174,0.013855,0.037109,0.0,-0.003906,0.003906,11.172874,,,
13864554000,0.999084,-0.016174,0.013855,0.037109,0.035156,-0.003906,-0.035156,11.192866,,,
13884781000,0.999084,-0.016174,0.013855,0.037109,0.0,-0.003906,0.042969,11.213093,6.01,2.73,
13906073000,0.999084,-0.016174,0.013794,0.037109,0.0,-0.003906,0.003906,11.234385,,,
13924502000,0.999084,-0.016174,0.013794,0.037109,0.0,-0.003906,-0.035156,11.252814,,,
13947917000,0.999084,-0.016174,0.013794,0.037109,-0.007812,-0.039062,0.003906,11.276229,,,
13963928000,0.999084,-0.016174,0.013733,0.037109,-0.007812,-0.003906,0.003906,11.29224,,,
13983997000,0.999084,-0.016113,0.013794,0.037109,0.027344,-0.003906,0.003906,11.312309,,,
14003723000,0.999084,-0.016113,0.013733,0.037109,-0.007812,-0.003906,0.003906,11.332035,,,
14033685000,0.999084,-0.016113,0.013794,0.037048,-0.007812,-0.003906,0.003906,11.361997,,,
14043661000,0.999084,-0.016113,0.013794,0.037048,0.0,-0.003906,0.003906,11.371973,,,
14063948000,0.999084,-0.016113,0.013794,0.037048,-0.039062,-0.003906,0.003906,11.39226,,,
14088564000,0.999084,-0.016052,0.013794,0.037048,0.0,-0.003906,-0.035156,11.416876,,,
14103938000,0.999084,-0.01593,0.013733,0.037048,-0.007812,-0.003906,0.003906,11.43225,,,
14123624000,0.999084,-0.015625,0.01355,0.037048,-0.007812,-0.011719,-0.035156,11.451936,,,
14147338000,0.999084,-0.015381,0.013489,0.037048,0.019531,-0.019531,0.011719,11.47565,,,
14163479000,0.999084,-0.015686,0.013672,0.037048,0.027344,0.019531,0.078125,11.491791,,,
14183926000,0.999146,-0.013733,0.012817,0.036438,0.894531,-0.164062,-0.410156,11.512238,,,
14203584000,0.999207,-0.013245,0.01239,0.036133,-0.433594,0.339844,0.777344,11.531896,,,
14229755000,0.999146,-0.013672,0.012634,0.036255,0.097656,0.035156,0.085938,11.558067,,,
14243415000,0.999146,-0.01355,0.012573,0.036804,-0.054688,0.011719,0.125,11.571727,,,
14262908000,0.999146,-0.013611,0.012634,0.03772,0.019531,-0.027344,-0.058594,11.59122,,,
14283319000,0.999084,-0.013611,0.012573,0.037964,-0.210938,0.164062,0.050781,11.611631,,,
14313233000,0.999084,-0.013855,0.012451,0.038086,0.394531,-0.019531,0.011719,11.641545,,,
14329877000,0.999084,-0.01416,0.012512,0.038086,0.355469,-0.054688,0.058594,11.658189,,,
14342796000,0.999084,-0.015625,0.012878,0.038147,0.320312,0.1875,-0.019531,11.671108,,,
14363181000,0.999084,-0.016113,0.012817,0.038208,0.210938,-0.164062,-0.289062,11.691493,,,
14383329000,0.999023,-0.016479,0.012878,0.038269,0.472656,0.121094,0.058594,11.711641,,,
14407333000,0.999084,-0.016235,0.012756,0.038269,0.511719,0.160156,-0.019531,11.735645,,,
14422244000,0.999023,-0.016541,0.012878,0.038208,0.121094,-0.414062,-0.171875,11.750556,,,
14442839000,0.999023,-0.016663,0.012817,0.038269,-0.1875,-0.101562,0.019531,11.771151,,,
14462823000,0.999023,-0.016541,0.012878,0.038269,0.003906,0.128906,0.132812,11.791135,,,
14485864000,0.999084,-0.016174,0.012878,0.038208,-0.148438,-0.148438,0.019531,11.814176,,,
14502097000,0.999084,-0.016235,0.012817,0.037659,-0.300781,0.007812,0.019531,11.830409,,,
14523054000,0.999146,-0.016174,0.012756,0.036621,0.148438,-0.03125,-0.011719,11.851366,,,
14542702000,0.999146,-0.016357,0.012512,0.035706,-0.078125,0.199219,0.101562,11.871014,,,
14566371000,0.999207,-0.016296,0.011902,0.035095,-0.355469,-0.175781,-0.089844,11.894683,,,
14582058000,0.999207,-0.01593,0.01123,0.035278,0.164062,-0.109375,0.140625,11.91037,,,
14602057000,0.999207,-0.016174,0.011047,0.034973,-0.722656,0.199219,0.140625,11.930369,,,
14622804000,0.999207,-0.01593,0.009949,0.034851,-0.273438,-0.070312,0.027344,11.951116,,,
14648722000,0.999207,-0.01593,0.009705,0.035156,0.210938,0.0,0.066406,11.977034,,,
14662087000,0.999207,-0.01593,0.009399,0.035645,-0.140625,-0.03125,0.066406,11.990399,,,
14682022000,0.999146,-0.015808,0.009033,0.036377,0.316406,0.035156,0.066406,12.010334,,,
14702671000,0.999146,-0.015625,0.008606,0.037231,0.460938,-0.117188,0.027344,12.030983,,,
14725952000,0.999146,-0.015442,0.008423,0.036926,0.445312,-0.230469,0.066406,12.054264,,,
14741945000,0.999146,-0.015442,0.008423,0.036743,0.0625,-0.191406,-0.050781,12.070257,,,
14762042000,0.999146,-0.015564,0.008545,0.036804,-0.394531,-0.199219,0.027344,12.090354,,,
14782538000,0.999146,-0.015564,0.008667,0.036865,0.070312,0.035156,-0.011719,12.11085,,,
14812274000,0.999146,-0.015259,0.008789,0.037048,0.070312,0.074219,-0.050781,12.140586,,,
14826649000,0.999146,-0.015625,0.00885,0.037109,0.148438,-0.117188,-0.011719,12.154961,,,
14841464000,0.999146,-0.01532,0.009094,0.037231,0.035156,-0.117188,0.066406,12.169776,,,
14862055000,0.999146,-0.015625,0.009399,0.037415,-0.035156,-0.046875,0.027344,12.190367,,,
14891318000,0.999146,-0.015625,0.009949,0.037415,-0.019531,0.226562,-0.011719,12.21963,,,
14905801000,0.999146,-0.015381,0.010071,0.037415,-0.171875,0.0,-0.011719,12.234113,,,
14921128000,0.999146,-0.015808,0.010193,0.037231,0.292969,0.191406,0.066406,12.24944,,,
14956384000,0.999146,-0.015259,0.010803,0.036743,0.722656,-0.046875,0.027344,12.284696,6.03,2.76,
14962374000,0.999146,-0.015686,0.011047,0.036499,0.101562,0.027344,0.21875,12.290686,,,
14981139000,0.999146,-0.015808,0.011597,0.035889,0.117188,-0.238281,-0.050781,12.309451,,,
15001765000,0.999207,-0.015747,0.011658,0.035278,-0.25,-0.085938,-0.011719,12.330077,,,
15020918000,0.999207,-0.015564,0.011719,0.03479,-0.058594,-0.085938,0.066406,12.34923,,,
15050960000,0.999207,-0.015808,0.011658,0.033813,-0.058594,0.105469,0.066406,12.379272,,,
15061352000,0.999268,-0.015747,0.011658,0.033447,-0.171875,0.027344,0.21875,12.389664,,,
15081880000,0.999268,-0.015747,0.011658,0.032593,-0.363281,0.183594,0.332031,12.410192,,,
15100969000,0.999329,-0.015442,0.011719,0.031616,-0.59375,0.449219,0.792969,12.429281,,,
15125871000,0.999329,-0.015747,0.011658,0.030457,-0.707031,0.601562,0.832031,12.454183,6.03,2.8,
15140659000,0.99939,-0.015808,0.011658,0.029724,-0.59375,-0.164062,-0.128906,12.468971,,,
15160694000,0.99939,-0.015686,0.01178,0.029846,-0.480469,-0.46875,0.140625,12.489006,,,
15187397000,0.999329,-0.015503,0.01178,0.030151,0.210938,0.105469,0.101562,12.515709,,,
15200278000,0.999329,-0.015503,0.011841,0.030396,-0.09375,0.097656,0.179688,12.52859,,,
15220073000,0.999329,-0.015747,0.011902,0.030579,-0.402344,-0.054688,0.21875,12.548385,,,
15249096000,0.999329,-0.015564,0.01178,0.030518,-0.824219,-0.164062,-0.136719,12.577408,,,
15258327000,0.999329,-0.015564,0.011841,0.030457,0.25,-0.007812,0.058594,12.586639,,,
15279664000,0.999329,-0.015442,0.011841,0.030457,-0.210938,-0.015625,0.058594,12.607976,,,
15303154000,0.999329,-0.015198,0.011841,0.030457,-0.050781,-0.015625,-0.058594,12.631466,,,
15318275000,0.999329,-0.015259,0.01178,0.030518,-0.050781,0.019531,0.019531,12.646587,5.98,2.8,
15339534000,0.999329,-0.015198,0.011841,0.030518,0.066406,0.058594,0.058594,12.667846,,,
15359481000,0.999329,-0.015137,0.011841,0.030579,-0.085938,0.167969,0.171875,12.687793,,,
15387387000,0.999329,-0.014893,0.011841,0.030518,-0.011719,-0.023438,-0.019531,12.715699,,,
15398226000,0.999329,-0.014954,0.011719,0.030396,-0.507812,-0.023438,-0.019531,12.726538,,,
15419433000,0.999329,-0.014954,0.011719,0.030396,-0.394531,-0.023438,0.019531,12.747745,,,
15450248000,0.99939,-0.014954,0.011719,0.030334,0.523438,-0.023438,0.058594,12.77856,,,
15458366000,0.99939,-0.014954,0.011719,0.030273,0.640625,0.011719,0.019531,12.786678,,,
15479108000,0.99939,-0.014954,0.011658,0.030212,0.332031,-0.0625,-0.019531,12.80742,,,
15500159000,0.99939,-0.014709,0.011536,0.029968,-0.355469,0.089844,0.09375,12.828471,,,
15529394000,0.99939,-0.014954,0.011658,0.029419,0.265625,-0.023438,0.09375,12.857706,5.97,2.78,
15546009000,0.99939,-0.015015,0.01178,0.029297,0.113281,-0.101562,-0.058594,12.874321,,,
15560162000,0.99939,-0.015381,0.011902,0.029114,-0.378906,-0.015625,-0.019531,12.888474,,,
15579699000,0.99939,-0.01532,0.011841,0.02887,-0.457031,0.058594,-0.019531,12.908011,,,
15601454000,0.99939,-0.01532,0.011841,0.028809,-0.839844,0.105469,0.058594,12.929766,,,
15626199000,0.99939,-0.01532,0.011841,0.028687,0.003906,-0.007812,0.058594,12.954511,,,
15640023000,0.99939,-0.015381,0.011841,0.028564,0.121094,-0.007812,0.019531,12.968335,,,
15669201000,0.99939,-0.015442,0.011841,0.028564,-0.109375,-0.007812,0.019531,12.997513,,,
15685378000,0.99939,-0.015503,0.011841,0.028564,-0.035156,0.035156,0.019531,13.01369,,,
15699000000,0.99939,-0.015503,0.011902,0.028564,-0.035156,0.035156,0.019531,13.027312,,,
15719767000,0.99939,-0.015503,0.011902,0.028564,-0.027344,0.0,0.019531,13.048079,5.98,2.83,
15749311000,0.99939,-0.015503,0.011902,0.028564,-0.027344,0.0,0.019531,13.077623,,,
15767240000,0.99939,-0.015503,0.011902,0.028564,-0.0625,0.0,0.019531,13.095552,,,
15779007000,0.99939,-0.015503,0.011841,0.028625,-0.027344,0.035156,0.019531,13.107319,,,
15799631000,0.99939,-0.015503,0.011841,0.028625,-0.027344,0.035156,0.019531,13.127943,,,
15828600000,0.99939,-0.015503,0.011841,0.028625,-0.292969,0.0,-0.027344,13.156912,,,
15838411000,0.99939,-0.015503,0.011841,0.028625,-0.140625,0.0,-0.027344,13.166723,,,
15861609000,0.99939,-0.015442,0.011841,0.028625,-0.0625,0.0,0.011719,13.189921,,,
15878995000,0.99939,-0.015503,0.011902,0.028625,-0.027344,0.035156,0.050781,13.207307,,,
15908370000,0.99939,-0.015503,0.011902,0.028625,-0.027344,0.035156,0.011719,13.236682,5.99,2.63,
15918425000,0.99939,-0.015503,0.011902,0.028625,-0.027344,0.0,-0.027344,13.246737,,,
15939141000,0.99939,-0.015503,0.011902,0.028625,-0.054688,0.035156,-0.027344,13.267453,,,
15959056000,0.99939,-0.015564,0.011902,0.028625,-0.019531,0.0,0.011719,13.287368,,,
15979953000,0.99939,-0.015564,0.011902,0.028625,-0.054688,0.035156,0.011719,13.308265,,,
16008067000,0.99939,-0.015564,0.011902,0.028625,0.003906,-0.015625,0.042969,13.336379,,,
16018795000,0.99939,-0.015625,0.011902,0.028625,0.042969,-0.015625,0.003906,13.347107,,,
16039009000,0.99939,-0.015625,0.011902,0.028625,0.003906,0.019531,0.003906,13.367321,,,
16059590000,0.99939,-0.015625,0.011902,0.028564,0.003906,0.019531,0.003906,13.387902,,,
16088321000,0.99939,-0.015686,0.011902,0.028564,0.042969,0.019531,0.042969,13.416633,,,
16098308000,0.99939,-0.015625,0.011902,0.028564,-0.03125,-0.015625,0.003906,13.42662,5.97,2.84,
16119144000,0.99939,-0.015625,0.011902,0.028564,0.003906,0.019531,0.003906,13.447456,,,
16147869000,0.99939,-0.015625,0.011902,0.028503,-0.03125,0.019531,0.003906,13.476181,,,
16168486000,0.99939,-0.015625,0.011902,0.028503,-0.03125,0.019531,0.003906,13.496798,,,
16177320000,0.99939,-0.015686,0.011902,0.028503,-0.03125,0.019531,0.003906,13.505632,,,
16199090000,0.99939,-0.015625,0.011902,0.028503,0.003906,-0.015625,0.003906,13.527402,,,
16218922000,0.99939,-0.015625,0.011902,0.028503,0.003906,-0.015625,0.003906,13.547234,,,
16247696000,0.99939,-0.015625,0.011963,0.028503,0.003906,-0.015625,0.003906,13.576008,,,
16257714000,0.99939,-0.015625,0.011963,0.028503,0.003906,0.019531,0.042969,13.586026,,,
16278784000,0.99939,-0.015625,0.011963,0.028503,0.003906,0.019531,-0.035156,13.607096,,,
16308016000,0.99939,-0.015625,0.011902,0.028503,0.003906,-0.015625,0.042969,13.636328,6.02,2.84,
16317672000,0.99939,-0.015625,0.011902,0.028503,0.003906,-0.015625,0.003906,13.645984,,,
16338670000,0.99939,-0.015625,0.011902,0.028503,0.003906,-0.015625,0.003906,13.666982,,,
16364780000,0.99939,-0.015625,0.011963,0.028503,-0.03125,-0.015625,0.003906,13.693092,,,
16378498000,0.99939,-0.015625,0.011963,0.028503,0.003906,-0.015625,0.003906,13.70681,,,
16398626000,0.99939,-0.015686,0.011963,0.028503,0.003906,-0.015625,-0.035156,13.726938,,,
16427322000,0.99939,-0.015625,0.011963,0.028442,0.195312,0.019531,0.042969,13.755634,,,
16442812000,0.99939,-0.015686,0.011963,0.028442,0.160156,0.019531,0.003906,13.771124,,,
16459281000,0.99939,-0.015625,0.011963,0.028442,-0.1875,-0.015625,0.003906,13.787593,,,
16486995000,0.99939,-0.015686,0.011963,0.028442,0.003906,-0.015625,0.042969,13.815307,5.98,2.87,
16497257000,0.99939,-0.015686,0.011963,0.028442,0.003906,0.019531,0.003906,13.825569,,,
16526953000,0.99939,-0.015625,0.011963,0.028442,-0.03125,-0.015625,0.003906,13.855265,,,
16543533000,0.99939,-0.015625,0.011963,0.028442,-0.03125,-0.015625,0.003906,13.871845,,,
16558541000,0.99939,-0.015625,0.011963,0.028442,0.003906,-0.015625,0.003906,13.886853,,,
16586977000,0.99939,-0.015625,0.011963,0.028442,0.003906,-0.015625,0.003906,13.915289,,,
16606704000,0.99939,-0.015625,0.011963,0.028442,0.003906,-0.015625,0.003906,13.935016,,,
16617279000,0.99939,-0.015625,0.011963,0.028442,0.003906,-0.015625,0.003906,13.945591,,,
16647410000,0.99939,-0.015625,0.011963,0.028442,0.003906,-0.015625,0.003906,13.975722,,,
16657351000,0.99939,-0.015686,0.011963,0.028442,0.003906,0.019531,0.003906,13.985663,,,
16689323000,0.99939,-0.015686,0.011963,0.028442,0.003906,-0.015625,0.003906,14.017635,5.99,2.83,
16697294000,0.99939,-0.015686,0.011963,0.028442,0.003906,0.019531,0.003906,14.025606,,,
16726928000,0.99939,-0.015686,0.011963,0.028442,-0.03125,-0.015625,0.003906,14.05524,,,
16748603000,0.99939,-0.015686,0.011963,0.028442,0.003906,-0.015625,0.003906,14.076915,,,
16757304000,0.99939,-0.015747,0.011963,0.028442,0.003906,0.019531,0.003906,14.085616,,,
16786238000,0.99939,-0.015747,0.011963,0.028442,0.003906,-0.015625,0.003906,14.11455,,,
16804412000,0.99939,-0.015747,0.011963,0.028381,0.003906,-0.015625,0.003906,14.132724,,,
16830961000,0.99939,-0.015808,0.011963,0.028381,0.003906,-0.015625,0.003906,14.159273,,,
16837329000,0.99939,-0.015808,0.011963,0.028381,0.003906,-0.015625,0.003906,14.165641,,,
16870187000,0.99939,-0.015808,0.011963,0.028442,0.003906,0.019531,0.003906,14.198499,5.97,2.85,
16878542000,0.99939,-0.015747,0.011963,0.028442,0.003906,-0.015625,-0.035156,14.206854,,,
16905585000,0.99939,-0.015808,0.011963,0.028381,0.003906,-0.015625,0.003906,14.233897,,,
16926164000,0.99939,-0.015808,0.011963,0.028381,-0.03125,-0.015625,0.003906,14.254476,,,
16947553000,0.99939,-0.015808,0.011963,0.028381,0.003906,0.019531,0.003906,14.275865,,,
16965504000,0.99939,-0.015808,0.011963,0.028381,0.003906,-0.015625,0.003906,14.293816,,,
16988272000,0.99939,-0.015808,0.011963,0.028381,0.003906,-0.015625,0.003906,14.316584,,,
17005616000,0.99939,-0.015747,0.012024,0.028381,0.003906,0.019531,0.003906,14.333928,,,
17026001000,0.99939,-0.015747,0.012024,0.028381,0.003906,0.019531,0.003906,14.354313,,,
17045660000,0.99939,-0.015747,0.012024,0.028381,0.003906,0.019531,0.003906,14.373972,,,
17065781000,0.99939,-0.015747,0.012024,0.028381,-0.03125,-0.015625,0.003906,14.394093,6.03,2.84,
17085568000,0.99939,-0.015747,0.012024,0.028381,-0.03125,-0.015625,0.003906,14.41388,,,
17110856000,0.99939,-0.015808,0.012024,0.028381,-0.03125,-0.015625,0.003906,14.439168,,,
17125904000,0.99939,-0.015808,0.012024,0.028381,0.003906,-0.015625,0.003906,14.454216,,,
17144945000,0.99939,-0.015808,0.011963,0.028381,-0.03125,-0.015625,0.003906,14.473257,,,
17164958000,0.99939,-0.015808,0.011963,0.028381,0.003906,0.019531,0.003906,14.49327,,,
17194989000,0.99939,-0.015808,0.012024,0.028381,0.003906,-0.015625,0.042969,14.523301,,,
17204776000,0.99939,-0.015747,0.012024,0.028381,0.003906,-0.015625,0.042969,14.533088,,,
17225427000,0.99939,-0.015747,0.012024,0.028381,0.003906,-0.015625,0.003906,14.553739,,,
17244781000,0.99939,-0.015747,0.012024,0.02832,-0.03125,-0.015625,0.003906,14.573093,,,
17264613000,0.99939,-0.015747,0.012024,0.02832,-0.023438,-0.015625,0.003906,14.592925,5.98,2.84,
17286319000,0.99939,-0.015747,0.012024,0.02832,0.011719,0.019531,0.003906,14.614631,,,
17306038000,0.99939,-0.015747,0.012085,0.02832,0.011719,-0.015625,0.003906,14.63435,,,
17331281000,0.99939,-0.015747,0.012085,0.02832,0.011719,-0.015625,0.042969,14.659593,,,
17344421000,0.99939,-0.015747,0.012085,0.02832,0.011719,-0.015625,0.003906,14.672733,,,
17365050000,0.99939,-0.015747,0.012085,0.02832,0.003906,-0.015625,-0.035156,14.693362,,,
17387259000,0.99939,-0.015747,0.012085,0.02832,0.003906,0.027344,0.003906,14.715571,,,
17404424000,0.99939,-0.015747,0.012085,0.02832,0.003906,-0.007812,0.042969,14.732736,,,
17424064000,0.99939,-0.015747,0.012085,0.02832,0.003906,-0.007812,0.003906,14.752376,,,
17444414000,0.99939,-0.015747,0.012085,0.028259,0.003906,-0.007812,0.003906,14.772726,,,
17469869000,0.99939,-0.015747,0.012085,0.028259,0.003906,-0.007812,0.042969,14.798181,6.0,2.81,
17484337000,0.99939,-0.015747,0.012085,0.028259,-0.03125,0.027344,0.003906,14.812649,,,
17503942000,0.99939,-0.015747,0.012085,0.028259,-0.03125,-0.007812,0.003906,14.832254,,,
17526923000,0.99939,-0.015747,0.012085,0.028259,0.003906,-0.007812,0.003906,14.855235,,,
17543569000,0.99939,-0.015747,0.012085,0.028259,0.003906,-0.007812,0.003906,14.871881,,,
17563986000,0.99939,-0.015747,0.012085,0.028259,0.003906,-0.007812,0.003906,14.892298,,,
17583685000,0.99939,-0.015747,0.012085,0.028259,0.003906,0.027344,0.042969,14.911997,,,
17610809000,0.99939,-0.015747,0.012085,0.028259,0.003906,-0.007812,0.003906,14.939121,,,
17623978000,0.99939,-0.015747,0.012085,0.028259,0.003906,-0.007812,0.003906,14.95229,,,
17645229000,0.99939,-0.015747,0.012085,0.028259,0.003906,0.027344,0.003906,14.973541,5.97,2.75,
17673809000,0.99939,-0.015747,0.012085,0.028259,0.003906,-0.015625,0.003906,15.002121,,,
17683557000,0.99939,-0.015747,0.012085,0.028259,0.003906,-0.015625,-0.035156,15.011869,,,
17704114000,0.99939,-0.015747,0.012085,0.028259,0.003906,-0.015625,0.003906,15.032426,,,
17723233000,0.99939,-0.015747,0.012085,0.028259,0.003906,-0.015625,0.003906,15.051545,,,
17744692000,0.99939,-0.015747,0.012085,0.028259,0.003906,-0.015625,0.003906,15.073004,,,
17770470000,0.99939,-0.015747,0.012085,0.028259,-0.03125,-0.015625,0.003906,15.098782,,,
17783581000,0.99939,-0.015747,0.012085,0.028259,0.003906,-0.007812,0.003906,15.111893,,,
17805285000,0.99939,-0.015747,0.012085,0.028259,0.003906,-0.007812,0.003906,15.133597,,,
17823614000,0.99939,-0.015747,0.012085,0.028259,0.003906,-0.007812,0.003906,15.151926,,,
17846850000,0.99939,-0.015747,0.012085,0.028259,0.003906,-0.007812,0.003906,15.175162,5.97,2.83,
17862877000,0.99939,-0.015747,0.012085,0.028259,0.003906,-0.007812,0.003906,15.191189,,,
17882728000,0.99939,-0.015747,0.012085,0.028259,0.003906,-0.007812,0.042969,15.21104,,,
17903967000,0.99939,-0.015747,0.012085,0.028259,0.003906,0.027344,0.003906,15.232279,,,
17933246000,0.99939,-0.015747,0.012085,0.028259,-0.03125,-0.007812,0.003906,15.261558,,,
17948889000,0.99939,-0.015747,0.012085,0.028259,0.003906,-0.007812,0.042969,15.277201,,,
17962926000,0.99939,-0.015747,0.012085,0.028259,0.003906,-0.007812,0.003906,15.291238,,,
17982580000,0.99939,-0.015747,0.012085,0.028259,-0.03125,-0.007812,0.003906,15.310892,,,
18012851000,0.99939,-0.015747,0.012085,0.028259,0.003906,-0.007812,-0.035156,15.341163,,,
18022407000,0.99939,-0.015747,0.012085,0.028259,0.003906,-0.007812,0.003906,15.350719,,,
18042698000,0.99939,-0.015747,0.012085,0.028259,0.003906,0.027344,0.003906,15.37101,5.98,2.85,
18062161000,0.99939,-0.015747,0.012085,0.028259,0.003906,0.027344,0.003906,15.390473,,,
18089664000,0.99939,-0.015747,0.012085,0.028259,0.003906,-0.015625,0.003906,15.417976,,,
18102123000,0.99939,-0.015747,0.012085,0.028259,-0.03125,-0.015625,0.003906,15.430435,,,
18125007000,0.99939,-0.015747,0.012085,0.028259,0.003906,-0.015625,-0.035156,15.453319,,,
18142370000,0.99939,-0.015747,0.012085,0.028259,0.003906,0.019531,0.003906,15.470682,,,
18163509000,0.99939,-0.015747,0.012085,0.028259,0.003906,-0.015625,0.003906,15.491821,,,
18184081000,0.99939,-0.015747,0.012085,0.028259,0.003906,-0.015625,0.003906,15.512393,,,
18207751000,0.99939,-0.015747,0.012085,0.028259,0.003906,0.019531,0.042969,15.536063,,,
18221753000,0.99939,-0.015747,0.012085,0.028259,0.003906,-0.015625,0.042969,15.550065,5.99,2.84,
18241932000,0.99939,-0.015747,0.012085,0.028259,0.003906,-0.015625,0.003906,15.570244,,,
18272810000,0.99939,-0.015747,0.012085,0.028259,-0.03125,0.019531,0.003906,15.601122,,,
18281625000,0.99939,-0.015747,0.012085,0.028259,-0.03125,-0.015625,0.003906,15.609937,,,
18302260000,0.99939,-0.015747,0.012085,0.028259,0.003906,-0.015625,0.042969,15.630572,,,
18323388000,0.99939,-0.015747,0.012085,0.028259,0.003906,-0.015625,0.003906,15.6517,,,
18347446000,0.99939,-0.015747,0.012085,0.028198,-0.03125,0.058594,0.042969,15.675758,,,
18361363000,0.99939,-0.015808,0.012085,0.028137,0.003906,0.019531,0.003906,15.689675,,,
18381430000,0.99939,-0.015747,0.012085,0.028076,-0.070312,-0.007812,-0.035156,15.709742,,,
18411810000,0.99939,-0.015747,0.012085,0.027954,0.003906,-0.007812,0.003906,15.740122,,,
18421270000,0.99939,-0.015747,0.012085,0.027893,0.003906,0.027344,0.003906,15.749582,5.94,2.83,
18442483000,0.99939,-0.015747,0.012085,0.027832,-0.03125,-0.007812,0.003906,15.770795,,,
18471360000,0.999451,-0.015564,0.012024,0.027771,0.003906,-0.007812,0.003906,15.799672,,,
18481628000,0.999451,-0.015503,0.011963,0.02771,0.082031,0.027344,0.003906,15.80994,,,
18501371000,0.999451,-0.01532,0.011902,0.027527,0.265625,0.019531,0.003906,15.829683,,,
18524194000,0.999451,-0.015198,0.011658,0.027039,-0.355469,0.167969,-0.035156,15.852506,,,
18551621000,0.999451,-0.015503,0.011047,0.026245,0.363281,0.011719,0.003906,15.879933,,,
18561134000,0.999451,-0.015747,0.010803,0.02594,0.695312,0.011719,0.003906,15.889446,,,
18581193000,0.999512,-0.016357,0.009827,0.02533,0.058594,0.035156,0.003906,15.909505,,,
18611400000,0.999573,-0.013306,0.008301,0.023743,-0.179688,0.242188,0.226562,15.939712,5.99,2.84,
18621108000,0.999634,-0.011536,0.007629,0.023071,0.140625,0.105469,0.148438,15.94942,,,
18641371000,0.999695,-0.010498,0.005859,0.0224,1.113281,-0.496094,0.261719,15.969683,,,
18670919000,0.999512,-0.013855,0.005432,0.026611,-1.644531,0.5625,-0.542969,15.999231,,,
18688507000,0.999512,-0.013062,0.005981,0.028076,-1.214844,0.296875,0.609375,16.016819,,,
18700648000,0.99939,-0.013977,0.007263,0.030457,0.539062,0.457031,0.261719,16.02896,,,
18721096000,0.99939,-0.013855,0.008484,0.030151,-0.710938,0.617188,0.109375,16.049408,,,
18751901000,0.99939,-0.014893,0.011597,0.029602,0.109375,0.335938,0.117188,16.080213,,,
18761230000,0.99939,-0.014465,0.011414,0.029297,-0.554688,0.542969,0.269531,16.089542,,,
18780475000,0.99939,-0.014587,0.010986,0.028809,-0.285156,0.167969,0.347656,16.108787,,,
18800332000,0.999451,-0.014771,0.011597,0.028198,0.242188,0.042969,0.15625,16.128644,,,
18826026000,0.999451,-0.014526,0.011047,0.028015,-0.101562,-0.03125,0.15625,16.154338,5.98,2.88,
18840199000,0.999451,-0.014404,0.011169,0.027649,-0.117188,-0.261719,-0.074219,16.168511,,,
18870240000,0.999451,-0.014465,0.011169,0.0271,-0.648438,0.121094,0.195312,16.198552,,,
18879923000,0.999451,-0.014587,0.01123,0.026917,-0.273438,0.042969,-0.113281,16.208235,,,
18900555000,0.999451,-0.014282,0.011169,0.026672,-0.035156,-0.101562,-0.035156,16.228867,,,
18933173000,0.999512,-0.014282,0.011719,0.026367,-0.109375,-0.101562,-0.074219,16.261485,,,
18940633000,0.999451,-0.014771,0.011963,0.026245,-0.101562,-0.1875,0.195312,16.268945,,,
18960250000,0.999451,-0.014954,0.012146,0.026001,0.289062,-0.023438,0.042969,16.288562,,,
18981240000,0.999451,-0.015686,0.012573,0.025818,0.105469,0.058594,0.042969,16.309552,,,
18999667000,0.999451,-0.01532,0.012207,0.025574,0.304688,-0.007812,-0.496094,16.327979,6.01,2.55,
19020006000,0.999512,-0.015625,0.01239,0.025269,0.027344,0.019531,0.042969,16.348318,,,
19040205000,0.999512,-0.015686,0.012329,0.025085,0.027344,-0.007812,0.003906,16.368517,,,
19060051000,0.999512,-0.015686,0.012329,0.024841,-0.164062,-0.125,0.003906,16.388363,,,
19079809000,0.999512,-0.015198,0.012329,0.024475,-0.125,-0.085938,-0.152344,16.408121,,,
19099880000,0.999512,-0.016235,0.011353,0.024048,-0.59375,0.410156,0.195312,16.428192,,,
19119909000,0.999512,-0.015198,0.010681,0.023865,-0.082031,-0.316406,0.1875,16.448221,,,
19150074000,0.999512,-0.017395,0.010864,0.023499,-0.425781,0.015625,-0.152344,16.478386,,,
19159885000,0.999512,-0.017334,0.010864,0.023376,-0.195312,-0.09375,0.003906,16.488197,,,
19179518000,0.999512,-0.017212,0.010681,0.023315,-0.234375,-0.125,-0.074219,16.50783,,,
19200069000,0.999512,-0.017578,0.010864,0.023132,-0.347656,0.105469,-0.035156,16.528381,6.0,2.62,
19219701000,0.999512,-0.017822,0.011353,0.023254,-0.5625,-0.382812,-0.152344,16.548013,,,
19249970000,0.999512,-0.015198,0.012512,0.023376,-0.308594,-0.597656,-0.34375,16.578282,,,
19259600000,0.999512,-0.01532,0.012329,0.023438,-0.875,0.980469,0.117188,16.587912,,,
19279590000,0.999512,-0.015564,0.012451,0.023315,-0.109375,0.242188,0.308594,16.607902,,,
19299376000,0.999512,-0.015381,0.012329,0.023254,-0.1875,-0.054688,-0.035156,16.627688,,,
19328828000,0.999512,-0.01532,0.01239,0.023193,0.121094,-0.0625,-0.035156,16.65714,,,
19347626000,0.999512,-0.015198,0.01239,0.023132,0.234375,-0.101562,-0.035156,16.675938,,,
19359178000,0.999512,-0.015259,0.01239,0.02301,0.195312,0.050781,0.15625,16.68749,,,
19379279000,0.999512,-0.015381,0.012512,0.022888,0.15625,0.089844,0.042969,16.707591,,,
19401374000,0.999573,-0.015503,0.012512,0.022766,0.15625,0.011719,0.078125,16.729686,5.99,2.86,
19418912000,0.999573,-0.015686,0.012573,0.022583,-0.070312,-0.140625,0.078125,16.747224,,,
19439105000,0.999573,-0.015503,0.012634,0.022461,0.042969,-0.09375,0.117188,16.767417,,,
19459371000,0.999573,-0.015808,0.012695,0.022217,-0.226562,0.019531,0.15625,16.787683,,,
19488562000,0.999573,-0.016113,0.012756,0.022095,-0.21875,0.019531,0.117188,16.816874,,,
19498877000,0.999512,-0.016479,0.012817,0.021973,-0.21875,0.144531,0.078125,16.827189,,,
19519236000,0.999512,-0.016968,0.012817,0.02179,-0.253906,0.0,-0.1875,16.847548,,,
19539170000,0.999512,-0.017517,0.012695,0.021667,-0.640625,-0.023438,0.003906,16.867482,,,
19568791000,0.999512,-0.017578,0.012817,0.021606,-0.667969,-0.054688,-0.074219,16.897103,,,
19578523000,0.999512,-0.017578,0.012817,0.021606,-0.632812,-0.015625,0.042969,16.906835,6.0,2.87,
19598985000,0.999512,-0.017456,0.012817,0.021545,-0.054688,-0.015625,0.003906,16.927297,,,
19619056000,0.999512,-0.017334,0.012878,0.021545,-0.054688,-0.015625,0.003906,16.947368,,,
19648325000,0.999512,-0.017273,0.012878,0.021545,-0.054688,-0.023438,0.003906,16.976637,,,
19658245000,0.999512,-0.017273,0.012878,0.021545,-0.054688,0.015625,0.003906,16.986557,,,
19679128000,0.999512,-0.017212,0.012878,0.021545,-0.019531,0.015625,0.003906,17.00744,,,
19699813000,0.999512,-0.017212,0.012878,0.021606,-0.054688,0.015625,0.003906,17.028125,,,
19728244000,0.999512,-0.017273,0.012756,0.021545,0.21875,0.015625,0.003906,17.056556,,,
19737704000,0.999512,-0.017334,0.012756,0.021545,0.066406,0.015625,0.003906,17.066016,,,
19758443000,0.999512,-0.017395,0.012756,0.021545,-0.046875,-0.023438,-0.035156,17.086755,,,
19788032000,0.999512,-0.017334,0.012756,0.021545,-0.046875,-0.023438,0.003906,17.116344,,,
19798043000,0.999512,-0.017273,0.012756,0.021606,-0.011719,0.015625,0.003906,17.126355,,,
19818413000,0.999512,-0.017212,0.012817,0.021545,0.027344,0.015625,0.042969,17.146725,,,
19847949000,0.999512,-0.017151,0.012817,0.021545,-0.046875,-0.023438,0.003906,17.176261,,,
19857364000,0.999512,-0.017151,0.012817,0.021545,-0.046875,-0.023438,0.003906,17.185676,,,
19887283000,0.999512,-0.01709,0.012817,0.021545,-0.039062,0.015625,0.003906,17.215595,,,
19908376000,0.999512,-0.01709,0.012817,0.021545,-0.039062,-0.023438,0.003906,17.236688,,,
19917607000,0.999512,-0.01709,0.012817,0.021545,-0.039062,0.015625,0.003906,17.245919,,,
19938406000,0.999512,-0.017029,0.012817,0.021545,-0.007812,0.007812,-0.003906,17.266718,,,
19958557000,0.999512,-0.017029,0.012817,0.021545,-0.007812,-0.03125,-0.003906,17.286869,,,
19978111000,0.999512,-0.017029,0.012878,0.021545,-0.007812,0.007812,-0.003906,17.306423,,,
19998392000,0.999512,-0.016968,0.012878,0.021545,0.027344,0.007812,-0.042969,17.326704,,,
20018418000,0.999512,-0.016968,0.012878,0.021606,-0.046875,0.007812,-0.042969,17.34673,,,
20038397000,0.999512,-0.016907,0.012878,0.021606,-0.007812,-0.03125,-0.003906,17.366709,,,
20058115000,0.999512,-0.016846,0.012878,0.021606,0.027344,0.007812,-0.003906,17.386427,,,
20092184000,0.999512,-0.016846,0.012939,0.021606,-0.007812,0.007812,0.003906,17.420496,,,
20097606000,0.999512,-0.016785,0.012939,0.021606,-0.007812,0.007812,0.003906,17.425918,,,
20126853000,0.999512,-0.016785,0.012939,0.021606,0.027344,0.007812,0.003906,17.455165,,,
20137203000,0.999573,-0.016724,0.012939,0.021606,-0.007812,0.007812,0.003906,17.465515,,,
20158452000,0.999512,-0.016785,0.012939,0.021606,-0.007812,0.007812,0.003906,17.486764,,,
20179225000,0.999512,-0.016724,0.012939,0.021606,-0.007812,0.007812,0.003906,17.507537,,,
20207352000,0.999512,-0.016785,0.012939,0.021606,-0.007812,-0.03125,0.003906,17.535664,,,
20221886000,0.999512,-0.016724,0.012939,0.021606,-0.007812,0.007812,0.003906,17.550198,,,
20238271000,0.999512,-0.016724,0.013,0.021606,-0.007812,0.007812,0.003906,17.566583,,,
20267118000,0.999512,-0.016785,0.012939,0.021606,-0.007812,0.007812,0.003906,17.59543,,,
20286931000,0.999512,-0.016785,0.012939,0.021606,0.027344,0.007812,0.003906,17.615243,,,
20302274000,0.999512,-0.016785,0.012939,0.021606,-0.007812,0.007812,0.042969,17.630586,,,
20329473000,0.999512,-0.016785,0.013,0.021667,-0.007812,0.007812,-0.035156,17.657785,,,
20337180000,0.999512,-0.016785,0.013,0.021667,-0.007812,0.007812,0.003906,17.665492,,,
20367423000,0.999512,-0.016785,0.013,0.021667,-0.007812,0.007812,0.003906,17.695735,,,
20386082000,0.999512,-0.016785,0.013,0.021667,0.027344,0.007812,-0.035156,17.714394,,,
20397153000,0.999512,-0.016785,0.013,0.021667,-0.007812,0.007812,0.003906,17.725465,,,
20426150000,0.999512,-0.016785,0.013,0.021667,-0.007812,0.042969,0.003906,17.754462,,,
20446913000,0.999512,-0.016785,0.013,0.021667,-0.007812,0.007812,0.003906,17.775225,,,
20466179000,0.999512,-0.016785,0.013,0.021667,-0.007812,0.007812,0.003906,17.794491,,,
20486576000,0.999512,-0.016785,0.013,0.021667,-0.007812,0.007812,-0.035156,17.814888,,,
20511622000,0.999512,-0.016785,0.013,0.021606,0.027344,0.007812,0.003906,17.839934,,,
20526252000,0.999512,-0.016785,0.013,0.021606,0.027344,0.007812,0.003906,17.854564,,,
20546422000,0.999512,-0.016846,0.013,0.021606,-0.007812,0.007812,0.003906,17.874734,,,
20565417000,0.999512,-0.016846,0.013,0.021667,-0.007812,0.007812,0.003906,17.893729,,,
20590220000,0.999512,-0.016846,0.013,0.021667,-0.007812,0.007812,-0.035156,17.918532,,,
20605626000,0.999512,-0.016846,0.013,0.021606,-0.007812,0.007812,0.003906,17.933938,,,
20625821000,0.999512,-0.016846,0.013,0.021606,-0.007812,0.007812,0.003906,17.954133,,,
20645921000,0.999512,-0.016846,0.013,0.021606,0.027344,0.007812,0.003906,17.974233,,,
20673895000,0.999512,-0.016846,0.013,0.021606,-0.007812,0.007812,0.003906,18.002207,,,
20685728000,0.999512,-0.016846,0.013,0.021606,-0.007812,0.007812,0.003906,18.01404,,,
20705611000,0.999512,-0.016907,0.013,0.021606,-0.007812,0.007812,0.003906,18.033923,,,
20724721000,0.999512,-0.016846,0.013,0.021606,-0.007812,0.007812,0.003906,18.053033,,,
20746434000,0.999512,-0.016907,0.013,0.021606,-0.007812,0.0,-0.035156,18.074746,,,
20765588000,0.999512,-0.016907,0.013,0.021606,-0.007812,0.0,0.003906,18.0939,,,
20785034000,0.999512,-0.016846,0.013,0.021606,-0.007812,0.0,0.003906,18.113346,,,
20810886000,0.999512,-0.016846,0.013,0.021606,0.027344,0.0,-0.035156,18.139198,,,
20825275000,0.999512,-0.016846,0.013,0.021606,-0.007812,0.0,-0.035156,18.153587,,,
20844989000,0.999512,-0.016846,0.013,0.021606,-0.007812,0.0,0.003906,18.173301,,,
20864993000,0.999512,-0.016846,0.013,0.021606,-0.007812,0.0,0.003906,18.193305,,,
20886119000,0.999512,-0.016846,0.013,0.021606,-0.007812,0.0,-0.035156,18.214431,,,
20907381000,0.999512,-0.016846,0.013062,0.021606,-0.007812,0.0,0.003906,18.235693,,,
20924943000,0.999512,-0.016785,0.013,0.021606,-0.046875,0.0,0.003906,18.253255,,,
20944725000,0.999512,-0.016846,0.013,0.021606,0.0,0.0,0.003906,18.273037,,,
20964956000,0.999512,-0.016785,0.013062,0.021606,-0.039062,0.0,0.003906,18.293268,,,
20987585000,0.999512,-0.016785,0.013,0.021606,0.035156,0.0,0.003906,18.315897,,,
21009803000,0.999512,-0.016724,0.013062,0.021606,0.035156,0.0,0.003906,18.338115,,,
21025034000,0.999512,-0.016724,0.013062,0.021606,0.035156,0.0,0.003906,18.353346,,,
21044875000,0.999512,-0.016724,0.013062,0.021606,-0.007812,-0.007812,0.003906,18.373187,,,
21064451000,0.999512,-0.016785,0.013062,0.021606,-0.007812,0.0,0.003906,18.392763,,,
21089923000,0.999512,-0.016785,0.013062,0.021606,0.027344,0.0,0.003906,18.418235,,,
21104466000,0.999512,-0.016785,0.013062,0.021606,0.027344,0.0,0.003906,18.432778,,,
21124453000,0.999512,-0.016785,0.013,0.021606,0.027344,0.0,0.003906,18.452765,,,
21143991000,0.999512,-0.016724,0.013,0.021606,-0.007812,0.0,0.003906,18.472303,,,
21174267000,0.999512,-0.016724,0.013,0.021606,0.027344,-0.007812,0.003906,18.502579,,,
21191356000,0.999512,-0.016724,0.013,0.021606,0.027344,-0.007812,-0.035156,18.519668,,,
21204224000,0.999573,-0.016724,0.013,0.021606,-0.007812,-0.007812,0.003906,18.532536,,,
21224034000,0.999573,-0.016663,0.013,0.021606,-0.007812,-0.007812,0.003906,18.552346,,,
21246404000,0.999573,-0.016663,0.013,0.021606,0.027344,-0.007812,0.003906,18.574716,,,
21264275000,0.999573,-0.016663,0.013,0.021606,-0.007812,-0.007812,0.003906,18.592587,,,
21286424000,0.999573,-0.016663,0.013,0.021545,-0.007812,-0.007812,0.042969,18.614736,,,
21304393000,0.999573,-0.016663,0.013,0.021545,0.027344,-0.007812,0.003906,18.632705,,,
21323668000,0.999573,-0.016663,0.013,0.021545,-0.007812,-0.007812,0.003906,18.65198,,,
21343923000,0.999573,-0.016663,0.012939,0.021606,-0.007812,-0.007812,0.003906,18.672235,,,
21363658000,0.999573,-0.016602,0.012939,0.021606,-0.007812,-0.046875,0.003906,18.69197,,,
21387528000,0.999573,-0.016602,0.012939,0.021606,0.027344,-0.007812,0.003906,18.71584,,,
21403362000,0.999573,-0.016663,0.012939,0.021545,0.027344,-0.007812,-0.035156,18.731674,,,
21423646000,0.999573,-0.016663,0.012939,0.021606,-0.007812,-0.007812,0.042969,18.751958,,,
21445907000,0.999573,-0.016663,0.012939,0.021606,-0.007812,-0.007812,0.003906,18.774219,,,
21462976000,0.999573,-0.016724,0.012878,0.021606,-0.007812,-0.007812,-0.035156,18.791288,,,
21483219000,0.999573,-0.016724,0.012878,0.021545,-0.007812,-0.007812,0.003906,18.811531,,,
21503203000,0.999573,-0.016724,0.012878,0.021606,-0.007812,-0.007812,0.003906,18.831515,5.99,2.9,
21526893000,0.999573,-0.016724,0.012939,0.021606,-0.007812,-0.007812,0.003906,18.855205,,,
21543358000,0.999573,-0.016724,0.012939,0.021606,-0.007812,-0.007812,0.003906,18.87167,,,
21563208000,0.999573,-0.016724,0.012939,0.021606,-0.007812,-0.007812,0.003906,18.89152,,,
21583187000,0.999573,-0.016724,0.012939,0.021545,-0.007812,-0.007812,0.003906,18.911499,,,
21612746000,0.999573,-0.016724,0.012939,0.021545,-0.007812,-0.007812,0.003906,18.941058,,,
21629731000,0.999573,-0.016724,0.012939,0.021545,-0.007812,-0.007812,0.003906,18.958043,,,
21642881000,0.999573,-0.016724,0.012939,0.021606,-0.007812,-0.007812,0.003906,18.971193,,,
21662583000,0.999573,-0.016724,0.013,0.021606,-0.007812,-0.007812,0.003906,18.990895,,,
21684227000,0.999573,-0.016724,0.013,0.021606,-0.007812,-0.007812,0.003906,19.012539,5.98,2.89,
21709838000,0.999573,-0.016724,0.013,0.021606,-0.007812,-0.007812,0.003906,19.03815,,,
21722911000,0.999573,-0.016663,0.013,0.021606,-0.007812,-0.007812,0.003906,19.051223,,,
21743130000,0.999573,-0.016724,0.012939,0.021606,-0.007812,-0.007812,0.003906,19.071442,,,
21769047000,0.999573,-0.016724,0.012939,0.021606,-0.007812,-0.007812,-0.035156,19.097359,,,
21782608000,0.999573,-0.016724,0.012939,0.021606,-0.007812,-0.007812,-0.035156,19.11092,,,
21802531000,0.999573,-0.016724,0.012939,0.021606,0.027344,-0.007812,0.003906,19.130843,,,
21823652000,0.999573,-0.016724,0.012939,0.021606,0.027344,-0.007812,0.003906,19.151964,,,
21849255000,0.999573,-0.016663,0.012939,0.021606,0.027344,-0.007812,0.003906,19.177567,,,
21862623000,0.999573,-0.016663,0.012939,0.021606,-0.007812,-0.007812,0.003906,19.190935,,,
21882824000,0.999573,-0.016663,0.013,0.021545,0.027344,0.027344,-0.035156,19.211136,6.0,2.89,
21902916000,0.999573,-0.016663,0.013,0.021606,0.027344,-0.007812,0.003906,19.231228,,,
21922044000,0.999573,-0.016602,0.013,0.021606,-0.007812,-0.007812,0.003906,19.250356,,,
21942391000,0.999573,-0.016602,0.013,0.021545,-0.007812,-0.007812,0.003906,19.270703,,,
21971778000,0.999573,-0.016663,0.013,0.021545,-0.007812,-0.007812,0.003906,19.30009,,,
21987477000,0.999573,-0.016663,0.013,0.021545,-0.007812,-0.007812,0.003906,19.315789,,,
22002206000,0.999573,-0.016663,0.013,0.021545,-0.007812,-0.007812,0.003906,19.330518,,,
22021976000,0.999573,-0.016663,0.013,0.021545,-0.007812,-0.007812,0.003906,19.350288,,,
22041645000,0.999573,-0.016663,0.013,0.021545,0.027344,-0.007812,0.003906,19.369957,,,
22062056000,0.999573,-0.016602,0.013,0.021484,-0.007812,-0.007812,0.003906,19.390368,,,
22082238000,0.999573,-0.016663,0.013,0.021545,-0.007812,-0.007812,0.003906,19.41055,6.0,2.89,
22102641000,0.999573,-0.016663,0.013,0.021545,-0.007812,-0.007812,0.003906,19.430953,,,
22122189000,0.999573,-0.016663,0.012939,0.021545,-0.007812,-0.007812,0.042969,19.450501,,,
22141258000,0.999573,-0.016663,0.012939,0.021484,-0.007812,-0.007812,0.003906,19.46957,,,
22162805000,0.999573,-0.016602,0.012939,0.021545,-0.007812,-0.007812,0.003906,19.491117,,,
22187047000,0.999573,-0.016602,0.012939,0.021545,-0.007812,-0.007812,0.003906,19.515359,,,
22212679000,0.999573,-0.016602,0.012939,0.021545,-0.007812,-0.007812,0.003906,19.540991,,,
22221289000,0.999573,-0.016663,0.012939,0.021484,-0.007812,-0.007812,-0.035156,19.549601,,,
22242878000,0.999573,-0.016602,0.012939,0.021484,0.027344,-0.007812,0.042969,19.57119,,,
22266603000,0.999573,-0.016602,0.012939,0.021484,-0.007812,-0.007812,0.003906,19.594915,5.98,2.88,
22281241000,0.999573,-0.016602,0.012939,0.021484,-0.007812,-0.007812,0.003906,19.609553,,,
22301276000,0.999573,-0.016602,0.012939,0.021484,-0.007812,-0.007812,0.042969,19.629588,,,
22323310000,0.999573,-0.016541,0.012939,0.021484,-0.007812,-0.046875,0.003906,19.651622,,,
22347905000,0.999573,-0.016541,0.012939,0.021484,-0.007812,-0.046875,0.003906,19.676217,,,
22361155000,0.999573,-0.016479,0.012939,0.021484,0.027344,-0.007812,0.003906,19.689467,,,
22380608000,0.999573,-0.016479,0.012939,0.021484,0.027344,-0.039062,0.003906,19.70892,,,
22413040000,0.999573,-0.016479,0.012939,0.021484,-0.007812,0.0,0.003906,19.741352,,,
22426221000,0.999573,-0.016479,0.012878,0.021484,-0.007812,0.0,0.003906,19.754533,,,
22440809000,0.999573,-0.016541,0.012878,0.021423,-0.007812,0.0,-0.035156,19.769121,,,
22461008000,0.999573,-0.016479,0.012878,0.021423,0.027344,0.0,0.003906,19.78932,5.99,2.88,
22480190000,0.999573,-0.016479,0.012878,0.02124,0.027344,0.0,0.003906,19.808502,,,
22501921000,0.999573,-0.016479,0.012939,0.020813,0.066406,0.035156,-0.035156,19.830233,,,
22522533000,0.999573,-0.016418,0.013,0.020325,0.097656,0.035156,0.003906,19.850845,,,
22550826000,0.999573,-0.016479,0.013062,0.019714,0.128906,-0.007812,0.003906,19.879138,,,
22560330000,0.999573,-0.016541,0.013123,0.019653,0.203125,-0.085938,0.042969,19.888642,,,
22581156000,0.999573,-0.016663,0.013123,0.019958,-0.148438,-0.078125,-0.074219,19.909468,,,
22601593000,0.999573,-0.016968,0.013245,0.020325,-0.070312,-0.070312,0.003906,19.929905,,,
22628354000,0.999573,-0.0177,0.013367,0.020569,0.113281,0.050781,-0.074219,19.956666,,,
22640214000,0.999512,-0.019104,0.013428,0.020569,0.496094,0.121094,0.195312,19.968526,,,
22660605000,0.999512,-0.019348,0.013733,0.020325,0.417969,-0.230469,-0.113281,19.988917,,,
22690344000,0.999512,-0.016357,0.015076,0.02063,0.3125,-0.636719,0.003906,20.018656,,,
22700024000,0.999512,-0.016541,0.014954,0.020935,0.28125,-0.285156,-0.378906,20.028336,,,
22720112000,0.999512,-0.01593,0.014343,0.021667,0.234375,-0.03125,0.117188,20.048424,,,
22740001000,0.999512,-0.01593,0.016052,0.021912,0.257812,0.191406,-0.074219,20.068313,,,
22760654000,0.999512,-0.016357,0.017883,0.020874,-1.796875,0.191406,0.84375,20.088966,,,
22789786000,0.999451,-0.015869,0.021362,0.019165,0.910156,-0.546875,-0.074219,20.118098,,,
22804883000,0.999451,-0.01532,0.021423,0.019592,0.894531,1.09375,-0.417969,20.133195,,,
22819878000,0.999451,-0.015259,0.021057,0.021301,-1.257812,-0.429688,-0.304688,20.14819,,,
22840282000,0.999451,-0.014587,0.019897,0.02124,-0.160156,0.066406,0.386719,20.168594,,,
22859947000,0.999512,-0.014343,0.018616,0.021606,-0.574219,0.050781,-0.417969,20.188259,,,
22880303000,0.999512,-0.014648,0.018127,0.021729,-0.714844,0.160156,0.539062,20.208615,,,
22904342000,0.999512,-0.014587,0.017151,0.021973,0.042969,0.128906,-0.179688,20.232654,,,
22919904000,0.999512,-0.014832,0.016968,0.021912,-0.363281,-0.015625,0.011719,20.248216,,,
22939121000,0.999512,-0.014832,0.01709,0.02179,0.058594,0.058594,0.203125,20.267433,,,
22960957000,0.999512,-0.014893,0.016907,0.021545,-0.09375,0.019531,-0.371094,20.289269,,,
22985168000,0.999512,-0.014954,0.016663,0.02124,-0.054688,-0.007812,-0.296875,20.31348,,,
22999704000,0.999512,-0.015015,0.016418,0.020996,-0.214844,-0.007812,-0.066406,20.328016,,,
23019579000,0.999512,-0.01532,0.016174,0.020813,0.003906,0.066406,-0.066406,20.347891,,,
23044261000,0.999573,-0.015259,0.015808,0.02063,-0.070312,0.0,-0.144531,20.372573,,,
23059248000,0.999573,-0.015198,0.01532,0.020386,0.265625,0.144531,-0.066406,20.38756,,,
23078992000,0.999573,-0.015015,0.014832,0.020203,-0.011719,0.027344,0.085938,20.407304,,,
23099412000,0.999573,-0.015137,0.014038,0.020203,-0.101562,-0.125,0.085938,20.427724,,,
23128505000,0.999573,-0.01532,0.013611,0.020142,-0.539062,0.144531,-0.179688,20.456817,,,
23144330000,0.999573,-0.015259,0.013489,0.020142,-0.65625,0.027344,0.050781,20.472642,,,
23159204000,0.999573,-0.01532,0.013367,0.020203,-0.394531,-0.046875,0.050781,20.487516,,,
23179232000,0.999573,-0.015503,0.013306,0.020142,-0.277344,-0.085938,0.355469,20.507544,,,
23199105000,0.999573,-0.015198,0.013123,0.020203,0.027344,0.0,-0.105469,20.527417,,,
23219124000,0.999573,-0.015137,0.013062,0.020203,0.066406,0.105469,-0.027344,20.547436,,,
23248295000,0.999573,-0.014893,0.012817,0.020264,0.210938,-0.085938,-0.144531,20.576607,,,
23258843000,0.999573,-0.015198,0.012695,0.020264,0.132812,0.066406,0.164062,20.587155,,,
23278875000,0.999573,-0.016663,0.013,0.020203,-0.09375,0.183594,0.394531,20.607187,,,
23298972000,0.999573,-0.016907,0.013611,0.019958,-0.234375,-0.316406,0.164062,20.627284,,,
23328715000,0.999573,-0.017273,0.013123,0.019714,-0.253906,0.105469,-0.105469,20.657027,,,
23348185000,0.999573,-0.017029,0.013123,0.019714,0.273438,0.039062,0.085938,20.676497,,,
23358221000,0.999573,-0.017029,0.012939,0.019775,-0.457031,-0.007812,-0.105469,20.686533,,,
23378371000,0.999573,-0.016785,0.012573,0.019836,-0.464844,-0.007812,-0.066406,20.706683,,,
23399111000,0.999573,-0.016357,0.012268,0.020081,-0.472656,0.058594,0.242188,20.727423,,,
23427693000,0.999573,-0.016052,0.012207,0.020325,-0.480469,0.234375,-0.066406,20.756005,,,
23443849000,0.999573,-0.01593,0.012146,0.020325,-0.472656,0.121094,0.011719,20.772161,,,
23458885000,0.999573,-0.015625,0.012024,0.020325,-0.277344,0.042969,-0.027344,20.787197,,,
23487816000,0.999634,-0.015015,0.01178,0.020508,0.363281,-0.046875,0.085938,20.816128,,,
23497575000,0.999634,-0.014954,0.01178,0.020569,0.210938,-0.015625,0.050781,20.825887,,,
23518865000,0.999573,-0.014893,0.011902,0.020752,0.402344,-0.015625,-0.066406,20.847177,,,
23547428000,0.999573,-0.014404,0.011902,0.021179,0.058594,-0.214844,-0.179688,20.87574,6.03,2.87,6.13
23557841000,0.999573,-0.014587,0.011902,0.021362,-0.125,-0.023438,0.085938,20.886153,,,
23578163000,0.999573,-0.014587,0.011963,0.02179,-0.164062,0.128906,0.050781,20.906475,,,
23598645000,0.999573,-0.014465,0.011841,0.022095,-0.664062,0.050781,0.050781,20.926957,,,
23618843000,0.999573,-0.014587,0.011902,0.022278,-0.699219,-0.023438,-0.144531,20.947155,,,
23638356000,0.999573,-0.014587,0.011902,0.022339,-0.777344,0.050781,-0.105469,20.966668,,,
23658692000,0.999573,-0.014648,0.011841,0.022339,-0.011719,-0.023438,0.011719,20.987004,,,
23686930000,0.999573,-0.014648,0.011841,0.022278,-0.042969,-0.023438,0.011719,21.015242,,,
23697281000,0.999573,-0.014648,0.011902,0.022278,-0.078125,0.011719,-0.027344,21.025593,,,
23718413000,0.999573,-0.014587,0.011902,0.022278,-0.078125,0.011719,0.011719,21.046725,,,
23738658000,0.999573,-0.014587,0.011902,0.022278,-0.234375,0.011719,0.050781,21.06697,6.03,2.93,6.19
23766669000,0.999573,-0.014587,0.011902,0.022278,-0.003906,0.011719,0.011719,21.094981,,,
23777305000,0.999573,-0.014587,0.011902,0.022278,-0.042969,-0.023438,0.011719,21.105617,,,
23807615000,0.999573,-0.014587,0.011902,0.022278,-0.035156,0.011719,0.011719,21.135927,,,
23817638000,0.999573,-0.014587,0.011841,0.022278,-0.070312,-0.023438,0.011719,21.14595,,,
23856974000,0.999573,-0.014587,0.011902,0.022278,-0.035156,0.011719,0.011719,21.185286,,,
23866245000,0.999573,-0.014526,0.011902,0.022278,-0.070312,-0.023438,0.011719,21.194557,,,
23887266000,0.999573,-0.014526,0.011902,0.022278,-0.070312,-0.023438,0.011719,21.215578,,,
23897414000,0.999573,-0.014587,0.011902,0.022278,-0.070312,-0.023438,-0.027344,21.225726,,,
23926565000,0.999573,-0.014587,0.011902,0.022278,-0.035156,0.011719,0.011719,21.254877,6.04,2.91,6.16
23937185000,0.999573,-0.014587,0.011902,0.022278,-0.070312,0.011719,0.011719,21.265497,,,
23966840000,0.999573,-0.014587,0.011902,0.022278,-0.109375,-0.023438,0.050781,21.295152,,,
23986494000,0.999573,-0.014587,0.011902,0.022278,-0.046875,0.019531,-0.003906,21.314806,,,
23997269000,0.999573,-0.014587,0.011963,0.022217,0.144531,-0.015625,-0.003906,21.325581,,,
24026456000,0.999573,-0.014648,0.011963,0.022217,0.058594,0.019531,-0.003906,21.354768,,,
24046812000,0.999573,-0.014587,0.011902,0.022217,-0.015625,-0.015625,-0.003906,21.375124,,,
24066730000,0.999573,-0.014587,0.011902,0.022217,-0.015625,-0.015625,-0.003906,21.395042,,,
24077300000,0.999573,-0.014526,0.011963,0.022156,-0.023438,0.019531,0.035156,21.405612,,,
24106449000,0.999573,-0.014526,0.011963,0.022217,0.011719,-0.015625,-0.003906,21.434761,,,
24125941000,0.999573,-0.014526,0.011963,0.022156,0.011719,0.019531,0.035156,21.454253,6.04,2.86,6.19
24145760000,0.999573,-0.014526,0.011963,0.022217,-0.023438,0.011719,0.035156,21.474072,,,
24176100000,0.999573,-0.014526,0.011963,0.022217,0.011719,0.011719,0.035156,21.504412,,,
24189018000,0.999573,-0.014526,0.011963,0.022217,0.011719,-0.023438,-0.003906,21.51733,,,
24205969000,0.999573,-0.014587,0.011963,0.022217,0.011719,0.019531,-0.042969,21.534281,,,
24226202000,0.999573,-0.014587,0.011963,0.022217,0.011719,0.019531,-0.003906,21.554514,,,
24245432000,0.999573,-0.014526,0.011963,0.022217,0.011719,0.019531,-0.003906,21.573744,,,
24276115000,0.999573,-0.014587,0.011963,0.022217,0.003906,-0.015625,-0.003906,21.604427,,,
24292221000,0.999573,-0.014526,0.011963,0.022217,0.003906,0.019531,-0.003906,21.620533,,,
24306209000,0.999573,-0.014526,0.011902,0.022217,-0.03125,-0.015625,-0.003906,21.634521,,,
24325499000,0.999573,-0.014587,0.011963,0.022217,-0.03125,-0.015625,-0.003906,21.653811,6.04,2.87,6.17
24345415000,0.999573,-0.014587,0.011902,0.022217,-0.03125,-0.015625,-0.003906,21.673727,,,
24369696000,0.999573,-0.014587,0.011902,0.022217,0.003906,0.019531,-0.003906,21.698008,,,
24385263000,0.999573,-0.014587,0.011902,0.022278,-0.03125,0.019531,-0.003906,21.713575,,,
24405066000,0.999573,-0.014587,0.011902,0.022278,0.003906,-0.015625,-0.003906,21.733378,,,
24424959000,0.999573,-0.014587,0.011963,0.022278,-0.03125,0.011719,-0.003906,21.753271,,,
24445170000,0.999573,-0.014526,0.011963,0.022278,0.003906,-0.023438,-0.003906,21.773482,,,
24475041000,0.999573,-0.014587,0.011963,0.022278,-0.03125,0.011719,-0.035156,21.803353,,,
24491780000,0.999573,-0.014587,0.011963,0.022278,0.003906,0.011719,0.003906,21.820092,,,
24504727000,0.999573,-0.014587,0.011963,0.022278,0.003906,-0.023438,0.003906,21.833039,,,
24525469000,0.999573,-0.014587,0.011963,0.022278,0.011719,-0.023438,0.003906,21.853781,6.03,2.88,5.85
24545110000,0.999573,-0.014587,0.011963,0.022278,0.011719,-0.023438,0.003906,21.873422,,,
24573502000,0.999573,-0.014587,0.011963,0.022278,0.011719,0.011719,0.003906,21.901814,,,
24584445000,0.999573,-0.014587,0.011902,0.022278,0.011719,-0.023438,0.042969,21.912757,,,
24604853000,0.999573,-0.014587,0.011902,0.022278,-0.023438,-0.023438,0.003906,21.933165,,,
24635183000,0.999573,-0.014587,0.011902,0.022339,-0.023438,0.011719,0.003906,21.963495,,,
24651843000,0.999573,-0.014526,0.011902,0.022339,0.011719,0.011719,0.042969,21.980155,,,
24664766000,0.999573,-0.014526,0.011963,0.022339,0.011719,0.011719,0.003906,21.993078,,,
24684351000,0.999573,-0.014526,0.011963,0.022339,0.011719,0.003906,0.042969,22.012663,,,
24704741000,0.999573,-0.014526,0.011963,0.022339,0.011719,0.003906,0.003906,22.033053,,,
24726556000,0.999573,-0.014465,0.011963,0.022339,-0.03125,-0.03125,0.003906,22.054868,6.03,2.93,6.17
24750587000,0.999573,-0.014465,0.011963,0.022339,0.003906,-0.03125,0.003906,22.078899,,,
24763900000,0.999573,-0.014465,0.011963,0.022339,-0.03125,0.003906,0.003906,22.092212,,,
24783968000,0.999573,-0.014465,0.011963,0.022339,0.003906,-0.03125,0.003906,22.11228,,,
24814079000,0.999573,-0.014526,0.011963,0.022339,0.003906,0.003906,0.003906,22.142391,,,
24830448000,0.999573,-0.014465,0.011963,0.022339,0.003906,0.003906,0.042969,22.15876,,,
24843733000,0.999573,-0.014465,0.011963,0.022339,-0.03125,-0.03125,0.003906,22.172045,,,
24864580000,0.999573,-0.014465,0.011963,0.022339,0.003906,0.003906,0.003906,22.192892,,,
24884805000,0.999573,-0.014465,0.011963,0.022339,0.003906,0.003906,0.003906,22.213117,,,
24909121000,0.999573,-0.014465,0.011963,0.022339,-0.03125,0.003906,0.003906,22.237433,,,
24924120000,0.999573,-0.014404,0.011963,0.022339,-0.03125,0.003906,0.003906,22.252432,6.04,2.89,6.18
24943712000,0.999573,-0.014404,0.012024,0.022339,-0.023438,-0.03125,0.003906,22.272024,,,
24963928000,0.999573,-0.014404,0.011963,0.022339,0.011719,0.003906,0.003906,22.29224,,,
24993717000,0.999573,-0.014404,0.011963,0.022339,-0.023438,0.003906,0.003906,22.322029,,,
25003401000,0.999573,-0.014404,0.011963,0.022339,0.011719,0.003906,0.003906,22.331713,,,
25023471000,0.999573,-0.014404,0.011963,0.022339,0.011719,0.003906,0.003906,22.351783,,,
25044297000,0.999573,-0.014465,0.011963,0.022339,-0.023438,0.003906,0.003906,22.372609,,,
25069253000,0.999573,-0.014465,0.011963,0.022339,-0.023438,-0.03125,0.042969,22.397565,,,
25083542000,0.999573,-0.014465,0.011963,0.022339,-0.023438,-0.03125,0.003906,22.411854,,,
25103163000,0.999573,-0.014404,0.011963,0.022339,0.011719,-0.03125,0.003906,22.431475,,,
25133629000,0.999573,-0.014404,0.011963,0.022339,0.011719,-0.03125,0.003906,22.461941,6.03,2.9,6.17
25148744000,0.999573,-0.014404,0.011963,0.022339,0.011719,-0.03125,0.003906,22.477056,,,
25163114000,0.999573,-0.014465,0.011963,0.022339,0.011719,0.003906,-0.035156,22.491426,,,
25183204000,0.999573,-0.014465,0.011963,0.022339,0.011719,0.011719,0.003906,22.511516,,,
25203312000,0.999573,-0.014465,0.011963,0.022339,0.011719,0.011719,0.003906,22.531624,,,
25230931000,0.999573,-0.014465,0.011902,0.022339,0.011719,-0.03125,0.003906,22.559243,,,
25243121000,0.999573,-0.014465,0.011902,0.022339,0.050781,0.003906,0.003906,22.571433,,,
25263432000,0.999573,-0.014465,0.011902,0.022339,-0.023438,0.003906,0.003906,22.591744,,,
25282319000,0.999573,-0.014465,0.011902,0.022339,0.011719,0.003906,0.003906,22.610631,,,
25303758000,0.999573,-0.014465,0.011902,0.022339,0.011719,-0.03125,0.003906,22.63207,,,
25326202000,0.999573,-0.014465,0.011902,0.022339,-0.023438,-0.03125,0.003906,22.654514,6.05,2.88,6.16
25343121000,0.999573,-0.014526,0.011963,0.022339,-0.023438,-0.03125,-0.035156,22.671433,,,
25362556000,0.999573,-0.014526,0.011963,0.022339,-0.023438,-0.03125,0.003906,22.690868,,,
25388390000,0.999573,-0.014526,0.011963,0.022339,0.011719,-0.03125,0.003906,22.716702,,,
25402169000,0.999573,-0.014465,0.011963,0.022339,-0.023438,-0.03125,0.003906,22.730481,,,
25423084000,0.999573,-0.014465,0.011963,0.022339,0.011719,-0.023438,0.003906,22.751396,,,
25444408000,0.999573,-0.014465,0.011963,0.0224,0.011719,-0.023438,0.003906,22.77272,,,
25468290000,0.999573,-0.014465,0.011963,0.022339,0.011719,-0.023438,-0.027344,22.796602,,,
25482038000,0.999573,-0.014465,0.011963,0.022339,-0.023438,-0.023438,0.050781,22.81035,,,
25502383000,0.999573,-0.014465,0.011963,0.0224,0.011719,-0.023438,0.011719,22.830695,,,
25522711000,0.999573,-0.014465,0.011963,0.022339,0.011719,-0.023438,0.011719,22.851023,,,
25541860000,0.999573,-0.014465,0.011963,0.022339,0.011719,0.011719,0.011719,22.870172,6.03,2.89,6.2
25562091000,0.999573,-0.014465,0.011963,0.022339,0.011719,-0.023438,0.011719,22.890403,,,
25583293000,0.999573,-0.014465,0.011963,0.022339,0.011719,0.011719,0.011719,22.911605,,,
25608276000,0.999573,-0.014465,0.011963,0.022339,0.011719,0.011719,0.011719,22.936588,,,
25621505000,0.999573,-0.014465,0.011963,0.022339,0.011719,-0.023438,0.011719,22.949817,,,
25641603000,0.999573,-0.014465,0.011963,0.022339,-0.023438,0.011719,0.011719,22.969915,,,
25672039000,0.999573,-0.014465,0.011963,0.022339,-0.03125,-0.023438,0.003906,23.000351,,,
25688878000,0.999573,-0.014465,0.011963,0.022339,0.003906,-0.023438,0.003906,23.01719,,,
25701661000,0.999573,-0.014465,0.011963,0.022339,0.003906,0.011719,0.003906,23.029973,,,
25721081000,0.999573,-0.014465,0.011963,0.022339,-0.03125,-0.023438,0.042969,23.049393,,,
25742343000,0.999573,-0.014465,0.011963,0.022339,0.003906,0.011719,0.003906,23.070655,6.04,2.91,6.2
25765758000,0.999573,-0.014465,0.011963,0.022339,0.003906,-0.023438,0.003906,23.09407,,,
25781658000,0.999573,-0.014465,0.011963,0.022339,-0.03125,0.011719,0.003906,23.10997,,,
25801705000,0.999573,-0.014465,0.011963,0.022339,0.003906,-0.023438,0.003906,23.130017,,,
25831491000,0.999573,-0.014465,0.011963,0.022339,0.003906,0.011719,0.003906,23.159803,,,
25847938000,0.999573,-0.014465,0.011963,0.022339,0.003906,0.011719,0.003906,23.17625,,,
25862215000,0.999573,-0.014465,0.011963,0.022339,0.003906,0.011719,0.003906,23.190527,,,
25881104000,0.999573,-0.014465,0.011963,0.022339,0.003906,-0.023438,0.003906,23.209416,,,
25911267000,0.999573,-0.014465,0.011963,0.022339,0.003906,0.011719,0.003906,23.239579,,,
25920860000,0.999573,-0.014465,0.011963,0.022339,0.003906,0.011719,0.042969,23.249172,,,
25941070000,0.999573,-0.014465,0.011963,0.022339,0.003906,-0.023438,0.003906,23.269382,6.03,2.9,6.15
25960797000,0.999573,-0.014465,0.011963,0.022339,-0.03125,0.011719,0.003906,23.289109,,,
25991538000,0.999573,-0.014465,0.011963,0.022339,0.003906,0.011719,0.003906,23.31985,,,
26000078000,0.999573,-0.014465,0.011963,0.022339,0.003906,-0.023438,0.003906,23.32839,,,
26021229000,0.999573,-0.014465,0.011963,0.022339,0.003906,0.011719,0.003906,23.349541,,,
26040244000,0.999573,-0.014465,0.011963,0.022339,0.003906,-0.023438,0.003906,23.368556,,,
26061511000,0.999573,-0.014465,0.011963,0.022339,0.003906,0.011719,0.003906,23.389823,,,
26086018000,0.999573,-0.014465,0.011963,0.022339,-0.03125,-0.023438,0.003906,23.41433,,,
26101202000,0.999573,-0.014465,0.011963,0.022339,0.042969,-0.023438,0.042969,23.429514,,,
26121411000,0.999573,-0.014465,0.011963,0.022339,-0.03125,0.011719,0.003906,23.449723,,,
26150208000,0.999573,-0.014465,0.011963,0.022339,-0.03125,0.011719,0.003906,23.47852,6.04,2.95,6.16
26166825000,0.999573,-0.014465,0.011963,0.022339,0.003906,0.011719,0.003906,23.495137,,,
26180022000,0.999573,-0.014465,0.011963,0.022339,-0.03125,-0.023438,0.003906,23.508334,,,
26202299000,0.999573,-0.014465,0.011963,0.022339,-0.03125,-0.023438,0.003906,23.530611,,,
26230236000,0.999573,-0.014465,0.011963,0.022339,0.003906,-0.023438,0.003906,23.558548,,,
26245779000,0.999573,-0.014465,0.011963,0.022339,0.003906,0.011719,0.042969,23.574091,,,
26259936000,0.999573,-0.014465,0.011963,0.022339,-0.03125,0.011719,0.003906,23.588248,,,
26280108000,0.999573,-0.014465,0.011963,0.022339,0.003906,-0.023438,0.042969,23.60842,,,
26309929000,0.999573,-0.014465,0.011963,0.022339,0.003906,0.003906,-0.035156,23.638241,,,
26325744000,0.999573,-0.014465,0.011963,0.022339,0.003906,-0.03125,0.042969,23.654056,,,
26339436000,0.999573,-0.014465,0.011963,0.022339,-0.03125,-0.023438,0.003906,23.667748,6.05,2.94,6.13
26360275000,0.999573,-0.014465,0.011963,0.022339,0.003906,0.011719,0.042969,23.688587,,,
26380647000,0.999573,-0.014465,0.011963,0.022339,0.003906,-0.023438,0.003906,23.708959,,,
26409339000,0.999573,-0.014465,0.011963,0.022339,-0.03125,-0.023438,-0.042969,23.737651,,,
26419671000,0.999573,-0.014465,0.011963,0.022339,-0.03125,0.011719,-0.042969,23.747983,,,
26439753000,0.999573,-0.014465,0.011963,0.022339,0.003906,-0.023438,-0.003906,23.768065,,,
26459603000,0.999573,-0.014465,0.011963,0.022339,0.003906,0.011719,-0.003906,23.787915,,,
26489251000,0.999573,-0.014465,0.011963,0.022339,0.003906,0.011719,-0.003906,23.817563,,,
26499270000,0.999573,-0.014465,0.011963,0.022339,0.003906,0.011719,-0.042969,23.827582,,,
26519690000,0.999573,-0.014465,0.011963,0.022339,-0.03125,0.011719,-0.003906,23.848002,,,
26549376000,0.999573,-0.014465,0.011963,0.022339,0.082031,-0.023438,0.003906,23.877688,6.03,2.87,6.19
26559404000,0.999573,-0.014404,0.011902,0.022339,0.160156,0.011719,0.003906,23.887716,,,
26579209000,0.999573,-0.014404,0.011963,0.0224,0.265625,0.011719,0.042969,23.907521,,,
26599137000,0.999573,-0.014404,0.011963,0.022339,0.257812,0.011719,0.003906,23.927449,,,
26629522000,0.999573,-0.014771,0.012085,0.022278,0.792969,-0.0625,-0.074219,23.957834,,,
26638484000,0.999573,-0.014709,0.012207,0.022339,0.640625,-0.101562,0.042969,23.966796,,,
26659626000,0.999573,-0.015259,0.012329,0.022217,1.101562,0.097656,-0.074219,23.987938,,,
26679647000,0.999573,-0.015015,0.012329,0.021973,0.210938,-0.09375,0.078125,24.007959,,,
26708926000,0.999573,-0.014771,0.012085,0.021606,-0.074219,-0.171875,-0.074219,24.037238,,,
26723872000,0.999573,-0.014954,0.012146,0.021545,0.386719,-0.207031,-0.074219,24.052184,,,
26739257000,0.999573,-0.014771,0.012024,0.021362,0.066406,-0.015625,-0.226562,24.067569,6.02,2.97,6.19
26759373000,0.999573,-0.014954,0.012085,0.021362,0.027344,-0.179688,-0.226562,24.087685,,,
26788841000,0.999573,-0.015137,0.012146,0.021606,-0.164062,-0.207031,0.078125,24.117153,,,
26798727000,0.999573,-0.015137,0.012146,0.021729,0.277344,-0.09375,0.003906,24.127039,,,
26820148000,0.999573,-0.015137,0.012268,0.022156,0.203125,0.058594,-0.035156,24.14846,,,
26839129000,0.999573,-0.015076,0.012268,0.022522,-0.304688,-0.054688,-0.457031,24.167441,,,
26868529000,0.999573,-0.015076,0.012268,0.023071,-0.339844,-0.054688,0.042969,24.196841,,,
26878538000,0.999573,-0.014893,0.012024,0.023254,-0.808594,-0.054688,-0.113281,24.20685,,,
26899055000,0.999512,-0.014893,0.012146,0.023682,-0.695312,0.011719,0.234375,24.227367,,,
26928595000,0.999512,-0.015076,0.012024,0.024292,-0.777344,0.058594,0.070312,24.256907,6.04,2.85,6.05
26945116000,0.999512,-0.014771,0.011841,0.024536,-0.855469,0.019531,0.261719,24.273428,,,
26958683000,0.999512,-0.014954,0.011841,0.024658,-0.433594,0.480469,0.226562,24.286995,,,
26979011000,0.999512,-0.014954,0.011719,0.024231,-0.511719,0.210938,0.070312,24.307323,,,
27004723000,0.999512,-0.014954,0.011658,0.023743,0.5625,-0.476562,-0.042969,24.333035,,,
27018586000,0.999573,-0.014771,0.011597,0.023682,-0.136719,-0.515625,-0.160156,24.346898,,,
27039044000,0.999512,-0.014832,0.011658,0.023865,0.171875,-0.054688,0.300781,24.367356,,,
27068204000,0.999512,-0.014771,0.011719,0.023865,-0.480469,-0.015625,0.417969,24.396516,,,
27087841000,0.999512,-0.015015,0.011658,0.02417,-0.402344,0.019531,-0.042969,24.416153,,,
27097887000,0.999512,-0.014954,0.011597,0.024353,-1.09375,0.136719,0.226562,24.426199,,,
27118676000,0.999512,-0.014893,0.011475,0.02478,-0.902344,-0.09375,-0.160156,24.446988,,,
27138497000,0.999512,-0.014648,0.011353,0.025146,-0.480469,0.136719,0.148438,24.466809,,,
27167575000,0.999512,-0.014709,0.011353,0.025635,-0.335938,0.058594,-0.074219,24.495887,,,
27177411000,0.999512,-0.014709,0.011353,0.025818,-0.144531,-0.09375,-0.035156,24.505723,,,
27198435000,0.999512,-0.014832,0.011292,0.026184,-0.21875,-0.09375,-0.035156,24.526747,,,
27218387000,0.999451,-0.014893,0.011292,0.026306,-0.488281,0.175781,0.035156,24.546699,,,
27247373000,0.999451,-0.014893,0.011292,0.026489,-0.21875,-0.015625,-0.042969,24.575685,,,
27263206000,0.999451,-0.014893,0.011292,0.02655,-0.136719,0.019531,-0.003906,24.591518,,,
27278823000,0.999451,-0.014709,0.01123,0.026672,0.054688,-0.015625,-0.003906,24.607135,,,
27307674000,0.999451,-0.014771,0.01123,0.026672,-0.171875,0.019531,-0.003906,24.635986,,,
27317136000,0.999451,-0.014709,0.01123,0.026672,-0.097656,0.019531,-0.003906,24.645448,,,
27339221000,0.999451,-0.014648,0.01123,0.026611,0.019531,0.019531,-0.042969,24.667533,,,
27358442000,0.999451,-0.014771,0.01123,0.026611,-0.136719,-0.015625,-0.003906,24.686754,,,
27386980000,0.999451,-0.014832,0.01123,0.026611,-0.480469,-0.015625,-0.042969,24.715292,,,
27402141000,0.999451,-0.014832,0.01123,0.026611,-0.59375,0.019531,-0.003906,24.730453,,,
27418176000,0.999451,-0.014832,0.01123,0.026611,-0.519531,0.019531,-0.003906,24.746488,,,
27449237000,0.999451,-0.014832,0.01123,0.026611,-0.136719,0.019531,-0.003906,24.777549,,,
27466583000,0.999451,-0.014832,0.01123,0.02655,-0.136719,0.019531,-0.003906,24.794895,,,
27482157000,0.999451,-0.014832,0.01123,0.02655,-0.136719,0.019531,0.035156,24.810469,,,
27503291000,0.999451,-0.014832,0.01123,0.02655,-0.136719,0.019531,-0.003906,24.831603,,,
27518131000,0.999451,-0.014832,0.01123,0.026611,-0.136719,0.019531,-0.042969,24.846443,,,
27546644000,0.999451,-0.014832,0.01123,0.026611,-0.128906,0.019531,0.042969,24.874956,,,
27566751000,0.999451,-0.014832,0.01123,0.026611,-0.128906,-0.015625,0.003906,24.895063,,,
27586492000,0.999451,-0.014832,0.01123,0.026611,-0.128906,0.019531,0.003906,24.914804,,,
27597119000,0.999451,-0.014832,0.01123,0.026611,-0.128906,0.011719,0.003906,24.925431,,,
27626215000,0.999451,-0.014771,0.01123,0.026611,-0.128906,-0.023438,0.003906,24.954527,,,
27651096000,0.999451,-0.014771,0.01123,0.026611,-0.128906,0.011719,0.003906,24.979408,,,
27666867000,0.999451,-0.014771,0.01123,0.026611,-0.128906,0.011719,0.003906,24.995179,,,
27686207000,0.999451,-0.014771,0.01123,0.026611,-0.128906,0.011719,0.003906,25.014519,,,
27710923000,0.999451,-0.014771,0.011292,0.026611,-0.121094,0.011719,-0.035156,25.039235,,,
27726064000,0.999451,-0.014771,0.011292,0.026611,0.066406,0.003906,-0.003906,25.054376,,,
27745911000,0.999451,-0.014771,0.011292,0.026611,0.066406,0.003906,-0.003906,25.074223,,,
27769429000,0.999451,-0.014771,0.01123,0.026611,0.027344,0.003906,-0.003906,25.097741,,,
27791772000,0.999451,-0.014771,0.01123,0.026611,0.027344,0.003906,-0.003906,25.120084,,,
27806046000,0.999451,-0.014771,0.011292,0.026611,0.019531,0.003906,0.035156,25.134358,,,
27826409000,0.999451,-0.014771,0.01123,0.026611,0.019531,0.003906,-0.003906,25.154721,,,
27845807000,0.999451,-0.014771,0.01123,0.026672,0.019531,0.003906,-0.042969,25.174119,,,
27866549000,0.999451,-0.014771,0.01123,0.026672,0.019531,0.003906,-0.003906,25.194861,,,
27885945000,0.999451,-0.014771,0.01123,0.026672,0.011719,0.003906,-0.003906,25.214257,,,
27905819000,0.999451,-0.014771,0.01123,0.026672,0.011719,0.003906,-0.003906,25.234131,,,
27926022000,0.999451,-0.014771,0.011292,0.026611,0.011719,0.003906,-0.003906,25.254334,,,
27950933000,0.999451,-0.014709,0.011292,0.026611,0.011719,-0.03125,-0.003906,25.279245,,,
27965842000,0.999451,-0.014771,0.01123,0.026672,0.011719,0.003906,-0.003906,25.294154,,,
27985549000,0.999451,-0.014771,0.01123,0.026672,0.003906,0.003906,-0.003906,25.313861,,,
28005234000,0.999451,-0.014771,0.01123,0.026672,0.003906,-0.03125,-0.003906,25.333546,,,
28030983000,0.999451,-0.014771,0.01123,0.026672,0.003906,0.003906,-0.003906,25.359295,,,
28049122000,0.999451,-0.014771,0.01123,0.026672,0.003906,0.003906,-0.003906,25.377434,,,
28065152000,0.999451,-0.014771,0.01123,0.026611,0.003906,-0.03125,-0.003906,25.393464,,,
28087754000,0.999451,-0.014771,0.01123,0.026672,0.042969,-0.03125,-0.003906,25.416066,,,
28105319000,0.999451,-0.014771,0.01123,0.026672,0.003906,0.003906,-0.003906,25.433631,,,
28125713000,0.999451,-0.014771,0.011292,0.026611,-0.003906,0.003906,-0.003906,25.454025,,,
28145270000,0.999451,-0.014771,0.011292,0.026611,-0.003906,0.003906,-0.003906,25.473582,,,
28165162000,0.999451,-0.014771,0.011292,0.026672,-0.003906,-0.03125,-0.003906,25.493474,,,
28185392000,0.999451,-0.014771,0.011292,0.026672,-0.003906,0.003906,-0.003906,25.513704,,,
28205256000,0.999451,-0.014771,0.011292,0.026672,-0.003906,0.003906,0.003906,25.533568,,,
28224645000,0.999451,-0.014771,0.011292,0.026672,-0.003906,0.003906,0.042969,25.552957,,,
28245381000,0.999451,-0.014771,0.011292,0.026611,-0.003906,0.003906,-0.035156,25.573693,,,
28264615000,0.999451,-0.014771,0.011292,0.026672,-0.003906,0.003906,0.003906,25.592927,,,
28285627000,0.999451,-0.014709,0.011292,0.026611,-0.003906,0.003906,0.003906,25.613939,,,
28304580000,0.999451,-0.014709,0.011292,0.026611,-0.003906,0.003906,0.003906,25.632892,,,
28324361000,0.999451,-0.014709,0.011292,0.026611,-0.003906,0.003906,0.003906,25.652673,,,
28344436000,0.999451,-0.014709,0.011292,0.026611,0.035156,0.003906,0.003906,25.672748,,,
28364978000,0.999451,-0.014709,0.011292,0.026611,-0.003906,0.003906,0.003906,25.69329,,,
28385860000,0.999451,-0.014709,0.011292,0.026672,-0.003906,-0.03125,0.003906,25.714172,,,
28404225000,0.999451,-0.014709,0.011292,0.026611,-0.003906,0.003906,-0.035156,25.732537,,,
28424926000,0.999451,-0.014709,0.011292,0.026611,-0.003906,0.003906,0.042969,25.753238,,,
28444803000,0.999451,-0.014771,0.011292,0.026611,-0.003906,0.003906,0.003906,25.773115,,,
28467496000,0.999451,-0.014771,0.011292,0.026611,-0.039062,0.003906,-0.035156,25.795808,,,
28483880000,0.999451,-0.014771,0.01123,0.026611,-0.003906,0.003906,0.003906,25.812192,,,
28504248000,0.999451,-0.014771,0.011292,0.026611,-0.078125,0.003906,0.042969,25.83256,,,
28524399000,0.999451,-0.014771,0.01123,0.026611,0.113281,-0.03125,-0.035156,25.852711,,,
28544240000,0.999451,-0.014709,0.01123,0.026611,-0.003906,0.003906,0.003906,25.872552,,,
28563780000,0.999451,-0.014709,0.01123,0.026611,-0.003906,0.003906,0.003906,25.892092,,,
28589739000,0.999451,-0.014709,0.011292,0.026611,-0.003906,0.003906,0.042969,25.918051,,,
28603715000,0.999451,-0.014771,0.01123,0.026611,-0.003906,0.003906,0.003906,25.932027,,,
28628177000,0.999451,-0.014771,0.01123,0.026611,-0.003906,0.003906,0.003906,25.956489,,,
28643668000,0.999451,-0.014771,0.01123,0.026611,-0.003906,0.003906,0.003906,25.97198,,,
28663710000,0.999451,-0.014771,0.01123,0.026611,-0.003906,-0.03125,0.003906,25.992022,,,
28684049000,0.999451,-0.014771,0.01123,0.026611,-0.003906,0.003906,0.003906,26.012361,,,
28706871000,0.999451,-0.014771,0.01123,0.026611,-0.003906,0.003906,0.003906,26.035183,,,
28723622000,0.999451,-0.014771,0.01123,0.026611,-0.003906,0.003906,0.003906,26.051934,,,
28743023000,0.999451,-0.014771,0.01123,0.026611,-0.039062,0.003906,-0.003906,26.071335,,,
28772839000,0.999451,-0.014771,0.01123,0.026611,-0.039062,0.003906,-0.003906,26.101151,,,
28788017000,0.999451,-0.014771,0.01123,0.026611,0.074219,0.003906,0.035156,26.116329,,,
28803204000,0.999451,-0.014771,0.01123,0.026611,-0.070312,-0.003906,0.035156,26.131516,,,
28823273000,0.999451,-0.014771,0.01123,0.026611,0.042969,-0.003906,-0.003906,26.151585,,,
28847317000,0.999451,-0.014771,0.01123,0.026611,0.042969,-0.039062,-0.003906,26.175629,,,
28864250000,0.999451,-0.014771,0.01123,0.026611,0.121094,0.003906,-0.003906,26.192562,,,
28883011000,0.999451,-0.014771,0.01123,0.026611,0.042969,0.003906,-0.042969,26.211323,,,
28902758000,0.999451,-0.014771,0.01123,0.026611,0.003906,0.003906,-0.003906,26.23107,,,
28922544000,0.999451,-0.014771,0.01123,0.026611,-0.003906,0.003906,-0.003906,26.250856,,,
28943707000,0.999451,-0.014771,0.01123,0.026611,-0.003906,0.003906,-0.003906,26.272019,,,
28963400000,0.999451,-0.014771,0.01123,0.026611,-0.003906,0.003906,-0.003906,26.291712,,,
28982855000,0.999451,-0.014771,0.01123,0.026611,-0.003906,-0.03125,-0.003906,26.311167,,,
29002538000,0.999451,-0.014771,0.01123,0.026611,-0.003906,0.003906,-0.003906,26.33085,,,
29023288000,0.999451,-0.014771,0.01123,0.026611,-0.003906,0.003906,-0.003906,26.3516,,,
29045482000,0.999451,-0.014771,0.01123,0.026611,-0.003906,-0.03125,0.003906,26.373794,,,
29070677000,0.999451,-0.014771,0.01123,0.026611,-0.003906,-0.03125,0.003906,26.398989,,,
29081955000,0.999451,-0.014771,0.01123,0.026611,-0.003906,0.003906,0.042969,26.410267,,,
29102832000,0.999451,-0.014771,0.01123,0.026611,-0.003906,0.003906,0.003906,26.431144,,,
29124204000,0.999451,-0.014771,0.01123,0.026611,-0.003906,0.003906,0.003906,26.452516,,,
29142218000,0.999451,-0.014771,0.01123,0.026611,-0.003906,0.003906,0.042969,26.47053,,,
29161874000,0.999451,-0.014771,0.01123,0.026611,-0.003906,-0.03125,0.042969,26.490186,,,
29182141000,0.999451,-0.014771,0.01123,0.026611,0.035156,0.003906,0.003906,26.510453,,,
29202086000,0.999451,-0.014771,0.01123,0.026611,-0.003906,0.003906,-0.035156,26.530398,,,
29228324000,0.999451,-0.014771,0.01123,0.026611,-0.003906,0.003906,0.003906,26.556636,,,
29241602000,0.999451,-0.014771,0.01123,0.026611,-0.039062,0.003906,-0.035156,26.569914,,,
29261628000,0.999451,-0.014771,0.01123,0.026611,-0.039062,0.003906,0.003906,26.58994,,,
29284018000,0.999451,-0.014771,0.01123,0.026611,-0.003906,0.003906,0.003906,26.61233,,,
29301615000,0.999451,-0.014771,0.01123,0.026611,-0.003906,-0.03125,0.003906,26.629927,,,
29321790000,0.999451,-0.014771,0.01123,0.026611,-0.003906,0.003906,0.003906,26.650102,,,
29341942000,0.999451,-0.014771,0.01123,0.026611,-0.003906,0.003906,0.003906,26.670254,,,
29362578000,0.999451,-0.014771,0.01123,0.026611,-0.003906,0.003906,0.003906,26.69089,,,
29391203000,0.999451,-0.014771,0.01123,0.026611,-0.003906,0.003906,0.003906,26.719515,,,
29401976000,0.999451,-0.014771,0.01123,0.026611,-0.003906,0.003906,0.003906,26.730288,,,
29421650000,0.999451,-0.014771,0.01123,0.026611,-0.003906,0.003906,0.003906,26.749962,,,
29441445000,0.999451,-0.014771,0.01123,0.026611,-0.039062,-0.03125,0.003906,26.769757,,,
29464492000,0.999451,-0.014771,0.01123,0.026611,-0.003906,0.003906,0.042969,26.792804,,,
29483737000,0.999451,-0.014771,0.01123,0.026611,-0.003906,0.003906,0.003906,26.812049,,,
