timestamp_ns,qw,qx,qy,qz,ax,ay,az
2393882000,0.999146,-0.007996,0.041199,-0.000305,0.000000,0.011719,-0.035156
2403274000,0.999146,-0.007996,0.041199,-0.000366,0.000000,0.011719,0.011719
2413642000,0.999146,-0.007996,0.041260,-0.000366,-0.039062,-0.027344,0.011719
2433862000,0.999146,-0.007935,0.041260,-0.000366,0.000000,0.011719,0.011719
2443265000,0.999146,-0.007935,0.041260,-0.000366,0.000000,0.011719,-0.027344
2455590000,0.999146,-0.007935,0.041260,-0.000366,0.000000,0.011719,-0.027344
2463423000,0.999146,-0.007935,0.041260,-0.000366,0.000000,-0.027344,0.011719
2480871000,0.999146,-0.007935,0.041260,-0.000366,0.000000,0.011719,-0.027344
2493234000,0.999146,-0.007874,0.041260,-0.000366,0.000000,-0.027344,-0.027344
2509750000,0.999146,-0.007874,0.041321,-0.000366,-0.039062,0.011719,-0.027344
2523508000,0.999146,-0.007935,0.041321,-0.000366,-0.031250,-0.027344,0.011719
2538170000,0.999146,-0.007874,0.041321,-0.000427,0.007812,0.019531,0.011719
2552901000,0.999146,-0.007874,0.041321,-0.000427,-0.031250,0.019531,0.011719
2563277000,0.999146,-0.007935,0.041321,-0.000427,-0.031250,0.019531,0.011719
2583510000,0.999146,-0.007935,0.041321,-0.000427,0.007812,-0.019531,0.011719
2593046000,0.999146,-0.007935,0.041321,-0.000427,0.015625,-0.011719,0.019531
2613194000,0.999146,-0.007996,0.041260,-0.000427,0.015625,-0.011719,0.019531
2623993000,0.999146,-0.007935,0.041321,-0.000427,-0.023438,-0.011719,0.019531
2643234000,0.999146,-0.007935,0.041321,-0.000427,-0.023438,0.027344,-0.019531
2663179000,0.999084,-0.007996,0.041321,-0.000427,0.015625,0.027344,-0.019531
2687157000,0.999084,-0.007935,0.041321,-0.000427,-0.023438,-0.011719,-0.019531
2703051000,0.999084,-0.007935,0.041321,-0.000427,0.015625,-0.011719,0.019531
2724980000,0.999146,-0.007935,0.041321,-0.000427,0.015625,0.027344,0.019531
2747108000,0.999146,-0.007935,0.041260,-0.000427,0.015625,0.027344,0.019531
2762288000,0.999146,-0.007935,0.041260,-0.000427,0.015625,0.027344,-0.019531
2783385000,0.999146,-0.007996,0.041260,-0.000427,0.015625,0.027344,-0.019531
2809237000,0.999146,-0.007996,0.041199,-0.000427,0.015625,-0.011719,-0.019531
2822301000,0.999146,-0.007996,0.041260,-0.000427,-0.023438,-0.011719,-0.019531
2844288000,0.999146,-0.007996,0.041260,-0.000488,0.015625,0.027344,0.019531
2862738000,0.999146,-0.007996,0.041260,-0.000488,0.015625,0.027344,-0.019531
2883798000,0.999146,-0.007996,0.041260,-0.000488,0.015625,0.019531,0.019531
2906565000,0.999146,-0.007996,0.041260,-0.000488,-0.023438,-0.019531,0.019531
2921888000,0.999146,-0.008057,0.041260,-0.000488,0.015625,-0.011719,0.019531
2942677000,0.999146,-0.008057,0.041199,-0.000488,0.007812,0.027344,0.019531
2967799000,0.999146,-0.007996,0.041199,-0.000427,0.007812,-0.011719,-0.019531
2982095000,0.999146,-0.007996,0.041260,-0.000427,-0.031250,0.027344,0.019531
3001754000,0.999146,-0.008057,0.041260,-0.000427,-0.031250,0.019531,0.019531
3027633000,0.999146,-0.008057,0.041260,-0.000427,0.007812,0.019531,0.019531
3042149000,0.999146,-0.008057,0.041260,-0.000427,0.007812,0.019531,0.019531
3061541000,0.999146,-0.008057,0.041260,-0.000427,0.007812,-0.019531,0.019531
3081936000,0.999146,-0.008057,0.041260,-0.000427,0.007812,0.019531,0.050781
3103984000,0.999146,-0.008057,0.041260,-0.000427,0.007812,-0.019531,0.011719
3121863000,0.999146,-0.008057,0.041260,-0.000427,0.007812,0.019531,0.011719
3141450000,0.999146,-0.008057,0.041260,-0.000427,-0.031250,0.019531,0.011719
3161498000,0.999146,-0.008057,0.041260,-0.000427,0.007812,-0.019531,-0.027344
3191830000,0.999146,-0.008057,0.041260,-0.000427,0.015625,0.019531,-0.027344
3201396000,0.999146,-0.008057,0.041260,-0.000427,0.015625,0.019531,-0.027344
3221066000,0.999146,-0.008057,0.041260,-0.000427,0.007812,-0.019531,-0.027344
3251592000,0.999146,-0.008057,0.041260,-0.000427,0.007812,-0.019531,0.011719
3260883000,0.999146,-0.008057,0.041260,-0.000427,0.007812,-0.019531,0.011719
3281241000,0.999146,-0.008057,0.041260,-0.000427,0.007812,-0.019531,-0.027344
3301094000,0.999146,-0.008057,0.041260,-0.000427,0.007812,-0.019531,0.011719
3320797000,0.999084,-0.008118,0.041260,-0.000427,-0.031250,0.019531,-0.027344
3350813000,0.999146,-0.008118,0.041260,-0.000427,0.007812,0.027344,0.011719
3366459000,0.999146,-0.008118,0.041260,-0.000427,0.007812,-0.011719,0.011719
3380789000,0.999146,-0.008118,0.041260,-0.000427,0.007812,0.027344,0.011719
3400691000,0.999146,-0.008118,0.041260,-0.000427,-0.031250,0.019531,0.011719
3430846000,0.999146,-0.008118,0.041260,-0.000427,-0.023438,-0.019531,-0.027344
3449488000,0.999146,-0.008118,0.041260,-0.000427,0.015625,-0.019531,-0.027344
3456830000,0.999146,-0.008118,0.041260,-0.000427,-0.023438,-0.019531,-0.027344
3479253000,0.999146,-0.008118,0.041260,-0.000427,0.015625,0.019531,0.011719
3497201000,0.999146,-0.008118,0.041260,-0.000427,0.015625,0.019531,0.011719
3517231000,0.999146,-0.008118,0.041260,-0.000427,-0.023438,0.019531,0.011719
3538680000,0.999146,-0.008118,0.041260,-0.000427,0.015625,-0.019531,-0.027344
3562235000,0.999146,-0.008118,0.041260,-0.000427,0.015625,-0.019531,0.011719
3580000000,0.999146,-0.008118,0.041260,-0.000427,0.015625,-0.019531,0.050781
3601031000,0.999146,-0.008118,0.041260,-0.000427,0.015625,0.019531,0.011719
3624708000,0.999146,-0.008118,0.041260,-0.000427,0.015625,-0.019531,-0.027344
3640372000,0.999146,-0.008118,0.041260,-0.000427,-0.023438,-0.019531,-0.027344
3661449000,0.999146,-0.008118,0.041260,-0.000427,0.015625,-0.019531,-0.027344
3680547000,0.999146,-0.008118,0.041260,-0.000427,0.015625,0.027344,0.011719
3700808000,0.999146,-0.008118,0.041260,-0.000427,0.015625,0.027344,0.011719
3725796000,0.999146,-0.008118,0.041260,-0.000427,-0.023438,-0.011719,-0.027344
3739783000,0.999146,-0.008118,0.041260,-0.000427,-0.023438,-0.011719,-0.027344
3759468000,0.999146,-0.008118,0.041260,-0.000427,0.015625,0.027344,0.011719
3782045000,0.999146,-0.008118,0.041260,-0.000427,0.015625,0.027344,0.011719
3799679000,0.999146,-0.008118,0.041260,-0.000427,-0.023438,-0.011719,-0.027344
3820331000,0.999146,-0.008118,0.041260,-0.000427,0.015625,0.027344,-0.027344
3849968000,0.999146,-0.008118,0.041260,-0.000427,0.015625,-0.011719,0.011719
3859482000,0.999146,-0.008118,0.041260,-0.000427,0.015625,0.027344,0.011719
3879155000,0.999146,-0.008118,0.041260,-0.000427,0.015625,0.027344,0.011719
3899405000,0.999146,-0.008118,0.041260,-0.000427,0.015625,-0.011719,0.011719
3918981000,0.999146,-0.008118,0.041260,-0.000427,0.015625,-0.011719,0.011719
3939089000,0.999146,-0.008118,0.041260,-0.000427,0.015625,-0.011719,0.011719
3968968000,0.999146,-0.008118,0.041260,-0.000427,0.007812,-0.011719,-0.027344
3979728000,0.999146,-0.008118,0.041260,-0.000427,0.007812,0.027344,0.011719
3998775000,0.999146,-0.008118,0.041260,-0.000427,0.007812,0.027344,0.011719
4018972000,0.999146,-0.008118,0.041260,-0.000427,0.007812,0.027344,0.011719
4038726000,0.999146,-0.008118,0.041260,-0.000427,0.007812,-0.011719,0.011719
4070634000,0.999146,-0.008118,0.041260,-0.000427,0.007812,0.027344,0.011719
4079910000,0.999146,-0.008118,0.041260,-0.000427,0.007812,-0.011719,0.011719
4108985000,0.999146,-0.008118,0.041260,-0.000427,-0.031250,0.027344,0.011719
4118266000,0.999146,-0.008118,0.041260,-0.000427,0.007812,0.027344,0.011719
4138426000,0.999146,-0.008118,0.041260,-0.000427,0.007812,-0.011719,0.011719
4163017000,0.999146,-0.008118,0.041260,-0.000427,0.007812,0.027344,-0.027344
4178961000,0.999146,-0.008118,0.041260,-0.000427,-0.031250,-0.011719,0.050781
4198531000,0.999146,-0.008118,0.041260,-0.000427,0.007812,0.027344,0.011719
4222724000,0.999146,-0.008118,0.041260,-0.000427,0.007812,0.019531,0.050781
4237891000,0.999146,-0.008118,0.041260,-0.000427,0.007812,-0.019531,0.050781
4258540000,0.999146,-0.008118,0.041260,-0.000427,-0.031250,0.027344,0.011719
4280214000,0.999146,-0.008118,0.041260,-0.000427,0.007812,0.027344,0.011719
4302930000,0.999146,-0.008118,0.041260,-0.000427,0.007812,-0.019531,0.011719
4318144000,0.999146,-0.008118,0.041260,-0.000427,0.007812,0.019531,0.011719
4339488000,0.999146,-0.008118,0.041260,-0.000427,0.007812,-0.019531,-0.027344
4358976000,0.999146,-0.008118,0.041260,-0.000427,-0.031250,-0.019531,-0.027344
4383387000,0.999146,-0.008118,0.041260,-0.000427,-0.031250,0.019531,0.011719
4398075000,0.999146,-0.008118,0.041260,-0.000427,-0.031250,-0.019531,0.011719
4419016000,0.999146,-0.008118,0.041260,-0.000427,0.015625,-0.019531,0.011719
4437886000,0.999146,-0.008118,0.041260,-0.000427,0.015625,-0.019531,0.011719
4457815000,0.999146,-0.008118,0.041260,-0.000427,-0.023438,-0.019531,-0.027344
4477938000,0.999146,-0.008118,0.041260,-0.000427,0.015625,0.019531,0.011719
4507935000,0.999146,-0.008118,0.041260,-0.000427,0.015625,0.019531,0.003906
4517460000,0.999146,-0.008118,0.041260,-0.000427,0.015625,-0.019531,0.003906
4537667000,0.999146,-0.008118,0.041260,-0.000427,0.015625,0.019531,-0.035156
4569613000,0.999146,-0.008118,0.041260,-0.000427,-0.023438,0.019531,-0.035156
4577760000,0.999146,-0.008118,0.041260,-0.000427,0.015625,0.019531,0.003906
4598613000,0.999146,-0.008118,0.041260,-0.000427,-0.023438,-0.019531,0.011719
4617714000,0.999146,-0.008118,0.041260,-0.000427,0.015625,0.019531,0.011719
4637288000,0.999146,-0.008118,0.041260,-0.000427,0.015625,0.019531,0.050781
4657439000,0.999146,-0.008118,0.041260,-0.000427,-0.023438,0.019531,0.011719
4677989000,0.999146,-0.008118,0.041260,-0.000427,0.015625,0.019531,0.003906
4702395000,0.999146,-0.008118,0.041260,-0.000427,-0.023438,0.019531,0.003906
4717063000,0.999146,-0.008118,0.041260,-0.000427,-0.023438,0.019531,0.003906
4737284000,0.999146,-0.008118,0.041260,-0.000427,0.015625,-0.019531,0.003906
4767761000,0.999146,-0.008118,0.041260,-0.000427,0.015625,0.019531,0.003906
4783145000,0.999146,-0.008118,0.041260,-0.000427,0.015625,-0.019531,0.003906
4797384000,0.999146,-0.008118,0.041260,-0.000427,-0.023438,-0.019531,0.003906
4816718000,0.999146,-0.008118,0.041260,-0.000427,0.015625,0.019531,0.003906
4838010000,0.999146,-0.008118,0.041260,-0.000427,0.015625,-0.019531,0.003906
4857535000,0.999146,-0.008118,0.041260,-0.000427,0.015625,0.019531,0.003906
4896652000,0.999146,-0.008118,0.041260,-0.000427,0.015625,-0.019531,0.003906
4906555000,0.999146,-0.008118,0.041260,-0.000427,-0.023438,-0.019531,0.003906
4916939000,0.999146,-0.008118,0.041260,-0.000427,-0.023438,0.019531,0.003906
4937404000,0.999146,-0.008118,0.041260,-0.000427,-0.023438,-0.019531,0.003906
4966205000,0.999146,-0.008118,0.041260,-0.000427,-0.023438,-0.019531,0.003906
4976212000,0.999146,-0.008118,0.041260,-0.000427,-0.023438,0.019531,0.042969
5005974000,0.999146,-0.008118,0.041260,-0.000427,-0.023438,0.019531,0.003906
5016190000,0.999146,-0.008118,0.041260,-0.000427,-0.023438,-0.019531,0.003906
5037061000,0.999146,-0.008118,0.041260,-0.000427,0.015625,0.019531,-0.035156
5065974000,0.999146,-0.008118,0.041260,-0.000427,0.023438,-0.019531,-0.035156
5076191000,0.999146,-0.008118,0.041260,-0.000427,0.023438,0.019531,0.003906
5106269000,0.999146,-0.008118,0.041260,-0.000427,0.015625,0.019531,0.003906
5117164000,0.999146,-0.008118,0.041260,-0.000427,0.015625,-0.019531,0.003906
5137353000,0.999146,-0.008118,0.041260,-0.000427,0.015625,0.019531,0.003906
5165923000,0.999146,-0.008118,0.041260,-0.000427,0.015625,-0.019531,-0.035156
5175757000,0.999146,-0.008118,0.041260,-0.000427,0.015625,0.019531,0.003906
5196684000,0.999146,-0.008118,0.041260,-0.000427,-0.023438,-0.019531,0.003906
5226337000,0.999146,-0.008118,0.041260,-0.000427,0.015625,0.019531,0.011719
5235563000,0.999146,-0.008118,0.041260,-0.000427,0.015625,0.019531,0.011719
5256576000,0.999146,-0.008118,0.041260,-0.000427,0.015625,0.019531,0.011719
5276179000,0.999146,-0.008118,0.041260,-0.000427,0.015625,-0.019531,0.011719
5296452000,0.999146,-0.008118,0.041260,-0.000427,0.015625,0.019531,0.011719
5325527000,0.999146,-0.008118,0.041260,-0.000427,-0.023438,0.019531,0.011719
5335282000,0.999146,-0.008118,0.041260,-0.000427,0.015625,-0.019531,0.011719
5356689000,0.999146,-0.008118,0.041260,-0.000427,0.015625,-0.019531,0.011719
5385432000,0.999146,-0.008118,0.041260,-0.000427,0.015625,0.019531,0.011719
5405813000,0.999146,-0.008118,0.041260,-0.000427,-0.023438,-0.019531,0.011719
5422186000,0.999146,-0.008118,0.041260,-0.000427,0.015625,-0.019531,0.011719
5436326000,0.999146,-0.008118,0.041260,-0.000427,-0.023438,-0.019531,-0.027344
5465415000,0.999146,-0.008118,0.041260,-0.000427,0.015625,-0.019531,0.011719
5485087000,0.999146,-0.008118,0.041260,-0.000427,0.015625,-0.019531,0.011719
5495510000,0.999146,-0.008118,0.041260,-0.000427,-0.023438,0.019531,0.011719
5516491000,0.999146,-0.008118,0.041260,-0.000427,0.015625,0.019531,0.003906
5542723000,0.999146,-0.008118,0.041260,-0.000427,-0.023438,0.019531,0.003906
5556295000,0.999146,-0.008118,0.041260,-0.000427,-0.023438,-0.019531,0.003906
5584543000,0.999146,-0.008118,0.041260,-0.000427,0.015625,0.019531,-0.035156
5604423000,0.999146,-0.008118,0.041260,-0.000427,-0.023438,0.019531,0.003906
5631680000,0.999146,-0.008118,0.041260,-0.000427,0.015625,0.019531,0.003906
5644594000,0.999146,-0.008118,0.041260,-0.000427,-0.023438,0.019531,0.003906
5664561000,0.999146,-0.008118,0.041260,-0.000427,0.015625,-0.019531,0.042969
5690318000,0.999146,-0.008118,0.041260,-0.000427,0.015625,0.019531,-0.035156
5704942000,0.999146,-0.008118,0.041260,-0.000427,-0.023438,0.019531,0.042969
5724450000,0.999146,-0.008118,0.041260,-0.000427,0.015625,0.019531,0.003906
5746745000,0.999146,-0.008118,0.041260,-0.000427,0.015625,-0.019531,0.003906
5767626000,0.999146,-0.008118,0.041260,-0.000427,-0.023438,0.019531,0.003906
5784157000,0.999146,-0.008118,0.041260,-0.000427,-0.023438,0.019531,-0.035156
5814541000,0.999146,-0.008118,0.041260,-0.000427,0.015625,-0.019531,0.003906
5830122000,0.999146,-0.008118,0.041260,-0.000427,0.015625,0.019531,0.003906
5843795000,0.999146,-0.008118,0.041260,-0.000427,0.015625,0.019531,0.003906
5863933000,0.999146,-0.008118,0.041260,-0.000427,-0.023438,-0.019531,0.003906
5889497000,0.999146,-0.008118,0.041260,-0.000427,0.015625,0.019531,0.003906
5903784000,0.999146,-0.008118,0.041260,-0.000427,0.015625,-0.019531,-0.035156
5923869000,0.999146,-0.008118,0.041260,-0.000427,-0.023438,-0.019531,-0.035156
5950629000,0.999146,-0.008118,0.041260,-0.000427,0.015625,0.019531,0.003906
5963556000,0.999146,-0.008118,0.041260,-0.000427,-0.023438,0.019531,0.003906
5983608000,0.999146,-0.008118,0.041260,-0.000427,-0.023438,-0.019531,0.003906
6007198000,0.999146,-0.008118,0.041260,-0.000427,-0.023438,0.019531,0.003906
6030204000,0.999146,-0.008118,0.041260,-0.000427,0.015625,0.019531,0.003906
6043811000,0.999146,-0.008118,0.041260,-0.000427,0.015625,-0.019531,0.042969
6063017000,0.999146,-0.008118,0.041260,-0.000427,-0.023438,0.019531,-0.035156
6085032000,0.999146,-0.008118,0.041260,-0.000427,0.015625,0.019531,0.003906
6105411000,0.999146,-0.008118,0.041260,-0.000427,0.015625,0.019531,0.003906
6123911000,0.999146,-0.008118,0.041260,-0.000427,-0.023438,-0.019531,0.003906
6147759000,0.999146,-0.008118,0.041260,-0.000427,-0.023438,0.019531,0.003906
6163528000,0.999146,-0.008118,0.041260,-0.000427,0.015625,0.019531,0.003906
6182880000,0.999146,-0.008118,0.041260,-0.000427,0.015625,0.019531,0.003906
6210228000,0.999146,-0.008118,0.041260,-0.000427,-0.023438,0.019531,0.003906
6223504000,0.999146,-0.008118,0.041260,-0.000427,0.015625,0.019531,-0.035156
6242690000,0.999146,-0.008118,0.041260,-0.000427,0.015625,-0.019531,0.003906
6262619000,0.999146,-0.008118,0.041260,-0.000427,0.015625,0.019531,0.003906
6282982000,0.999146,-0.008118,0.041260,-0.000427,0.015625,0.019531,0.003906
6304056000,0.999146,-0.008118,0.041260,-0.000427,-0.023438,-0.019531,-0.035156
6323039000,0.999146,-0.008118,0.041260,-0.000427,0.015625,0.019531,0.003906
6345304000,0.999084,-0.008118,0.041260,-0.000366,-0.023438,-0.019531,0.003906
6362514000,0.999084,-0.008118,0.041260,-0.000427,0.015625,-0.019531,0.003906
6387654000,0.999084,-0.008118,0.041260,-0.000427,0.015625,0.019531,0.003906
6402501000,0.999084,-0.008118,0.041260,-0.000366,0.015625,-0.019531,0.003906
6422907000,0.999084,-0.008118,0.041260,-0.000427,0.015625,0.019531,0.003906
6442142000,0.999084,-0.008118,0.041260,-0.000427,0.054688,-0.019531,0.003906
6463069000,0.999084,-0.008118,0.041260,-0.000427,0.007812,0.019531,0.003906
6482002000,0.999084,-0.008118,0.041321,-0.000427,-0.031250,0.019531,0.003906
6501994000,0.999084,-0.008118,0.041321,-0.000427,-0.031250,-0.019531,0.003906
6522916000,0.999084,-0.008118,0.041260,-0.000427,0.007812,0.019531,0.003906
6541711000,0.999084,-0.008118,0.041321,-0.000427,-0.031250,-0.019531,0.003906
6561704000,0.999084,-0.008118,0.041321,-0.000427,0.007812,0.019531,0.003906
6585057000,0.999084,-0.008118,0.041321,-0.000427,-0.023438,0.019531,0.003906
6602484000,0.999084,-0.008118,0.041321,-0.000427,0.015625,0.019531,0.003906
6622460000,0.999084,-0.008179,0.041321,-0.000427,0.015625,-0.019531,0.003906
6642252000,0.999084,-0.008118,0.041321,-0.000427,0.015625,0.019531,0.003906
6661940000,0.999084,-0.008118,0.041321,-0.000427,-0.023438,0.019531,0.003906
6682009000,0.999084,-0.008118,0.041321,-0.000427,0.015625,-0.019531,0.003906
6701985000,0.999084,-0.008118,0.041321,-0.000427,-0.023438,0.019531,-0.035156
6725583000,0.999084,-0.008118,0.041321,-0.000427,0.015625,0.019531,0.003906
6747454000,0.999084,-0.008118,0.041260,-0.000427,0.015625,0.019531,0.003906
6761767000,0.999084,-0.008118,0.041260,-0.000427,0.015625,0.019531,0.003906
6782465000,0.999146,-0.008057,0.041260,-0.000427,0.015625,-0.019531,0.003906
6808336000,0.999146,-0.008057,0.041260,-0.000427,0.015625,0.019531,0.003906
6822524000,0.999146,-0.008057,0.041260,-0.000427,0.015625,0.019531,0.003906
6841369000,0.999146,-0.008057,0.041260,-0.000427,-0.023438,0.019531,0.003906
6868469000,0.999146,-0.007996,0.041260,-0.000427,0.015625,0.019531,0.003906
6880734000,0.999146,-0.008057,0.041260,-0.000427,0.015625,0.019531,0.003906
6901666000,0.999146,-0.007996,0.041260,-0.000427,-0.023438,0.019531,-0.035156
6926704000,0.999146,-0.008057,0.041260,-0.000366,0.015625,0.019531,0.003906
6941382000,0.999146,-0.007996,0.041260,-0.000366,0.015625,0.019531,0.003906
6960668000,0.999146,-0.008057,0.041260,-0.000427,0.015625,0.019531,0.003906
6982221000,0.999146,-0.008057,0.041260,-0.000427,0.015625,0.011719,-0.035156
7008183000,0.999146,-0.007996,0.041260,-0.000427,0.007812,0.011719,0.003906
7020621000,0.999084,-0.007996,0.041321,-0.000427,0.007812,0.011719,0.003906
7041134000,0.999146,-0.007996,0.041260,-0.000427,0.007812,0.011719,0.003906
7067726000,0.999084,-0.007996,0.041321,-0.000427,0.007812,0.011719,0.003906
7080504000,0.999084,-0.007996,0.041321,-0.000427,0.007812,0.011719,0.003906
7100582000,0.999084,-0.007996,0.041321,-0.000427,0.007812,-0.027344,0.003906
7128553000,0.999084,-0.007996,0.041321,-0.000427,0.007812,0.011719,0.042969
7140865000,0.999084,-0.007996,0.041321,-0.000427,-0.031250,-0.027344,0.003906
7160963000,0.999084,-0.007935,0.041321,-0.000427,0.007812,-0.027344,0.003906
7180738000,0.999084,-0.007935,0.041321,-0.000488,0.007812,0.011719,0.003906
7205700000,0.999084,-0.007935,0.041321,-0.000488,0.007812,0.011719,0.003906
7220505000,0.999084,-0.007935,0.041321,-0.000427,0.007812,0.011719,0.003906
7240654000,0.999146,-0.007935,0.041321,-0.000427,0.007812,-0.027344,0.003906
7264901000,0.999146,-0.007935,0.041260,-0.000427,-0.031250,0.011719,-0.035156
7280257000,0.999146,-0.007935,0.041260,-0.000427,0.007812,0.011719,0.003906
7299875000,0.999146,-0.007935,0.041260,-0.000427,0.007812,0.011719,0.003906
7320364000,0.999146,-0.007935,0.041321,-0.000427,0.007812,-0.027344,0.003906
7340028000,0.999146,-0.007935,0.041321,-0.000427,-0.031250,0.011719,0.003906
7359858000,0.999146,-0.007935,0.041321,-0.000427,0.007812,0.011719,0.003906
7380062000,0.999146,-0.007935,0.041321,-0.000427,0.007812,0.011719,0.003906
7399693000,0.999146,-0.007935,0.041321,-0.000427,-0.031250,-0.027344,0.003906
7419972000,0.999146,-0.007935,0.041321,-0.000427,0.007812,0.011719,0.003906
7439600000,0.999146,-0.007935,0.041321,-0.000427,0.007812,-0.027344,0.003906
7461782000,0.999146,-0.007935,0.041321,-0.000427,0.007812,-0.027344,0.003906
7479449000,0.999146,-0.007935,0.041321,-0.000427,0.007812,-0.027344,0.003906
7499127000,0.999146,-0.007935,0.041321,-0.000427,0.007812,0.011719,-0.003906
7519585000,0.999146,-0.007935,0.041321,-0.000427,0.007812,0.011719,-0.003906
7554103000,0.999146,-0.007935,0.041321,-0.000427,0.007812,0.011719,-0.003906
7568784000,0.999146,-0.007935,0.041321,-0.000427,-0.031250,0.011719,0.003906
7579698000,0.999146,-0.007935,0.041321,-0.000427,-0.031250,-0.027344,0.003906
7599125000,0.999146,-0.007935,0.041321,-0.000427,0.007812,0.011719,0.003906
7619561000,0.999146,-0.007935,0.041321,-0.000427,0.007812,-0.027344,0.003906
7645860000,0.999146,-0.007935,0.041321,-0.000427,0.007812,0.011719,0.003906
7659119000,0.999146,-0.007935,0.041321,-0.000427,0.007812,0.011719,0.003906
7679064000,0.999146,-0.007935,0.041321,-0.000427,-0.031250,0.011719,0.003906
7699926000,0.999146,-0.007935,0.041321,-0.000427,0.007812,0.011719,0.003906
7722807000,0.999146,-0.007935,0.041321,-0.000427,0.007812,0.011719,-0.035156
7738701000,0.999146,-0.007935,0.041321,-0.000427,0.007812,0.011719,0.003906
7759147000,0.999146,-0.007935,0.041321,-0.000427,0.007812,0.011719,0.003906
7788165000,0.999146,-0.007935,0.041321,-0.000427,0.007812,0.011719,0.003906
7798185000,0.999146,-0.007935,0.041321,-0.000427,-0.031250,0.011719,0.003906
7818413000,0.999146,-0.007935,0.041321,-0.000427,0.007812,-0.027344,0.003906
7838485000,0.999146,-0.007935,0.041321,-0.000427,0.007812,0.011719,0.003906
7868057000,0.999146,-0.007935,0.041321,-0.000427,0.007812,0.011719,0.003906
7884027000,0.999146,-0.007935,0.041321,-0.000427,-0.031250,0.011719,0.003906
7898044000,0.999146,-0.007935,0.041321,-0.000427,0.007812,-0.027344,0.003906
7918353000,0.999146,-0.007935,0.041321,-0.000427,-0.031250,0.011719,0.003906
7944686000,0.999146,-0.007935,0.041321,-0.000427,0.007812,0.011719,-0.003906
7958361000,0.999146,-0.007935,0.041321,-0.000427,-0.031250,0.011719,-0.042969
7988031000,0.999146,-0.007935,0.041321,-0.000427,0.007812,-0.027344,0.003906
7998219000,0.999146,-0.007935,0.041321,-0.000427,-0.031250,0.011719,0.003906
8018118000,0.999146,-0.007935,0.041321,-0.000427,0.007812,-0.027344,0.003906
8037998000,0.999146,-0.007935,0.041321,-0.000427,0.007812,0.011719,0.003906
8058016000,0.999146,-0.007935,0.041321,-0.000427,0.007812,0.011719,0.003906
8077583000,0.999146,-0.007935,0.041321,-0.000427,0.007812,0.011719,0.042969
8097800000,0.999146,-0.007935,0.041321,-0.000427,-0.031250,0.011719,0.003906
8118009000,0.999146,-0.007935,0.041321,-0.000427,0.007812,0.011719,0.003906
8138504000,0.999146,-0.007935,0.041321,-0.000427,0.007812,0.011719,0.003906
8165282000,0.999146,-0.007935,0.041321,-0.000427,0.007812,0.011719,-0.003906
8178089000,0.999146,-0.007935,0.041321,-0.000427,-0.031250,-0.027344,-0.003906
8207129000,0.999146,-0.007935,0.041321,-0.000427,0.007812,-0.027344,-0.003906
8217800000,0.999146,-0.007935,0.041321,-0.000427,0.007812,0.011719,-0.003906
8247186000,0.999146,-0.007935,0.041321,-0.000427,0.007812,-0.027344,-0.003906
8257889000,0.999146,-0.007935,0.041321,-0.000427,0.007812,0.011719,-0.003906
8277485000,0.999146,-0.007935,0.041321,-0.000427,0.007812,0.011719,-0.003906
8306743000,0.999146,-0.007935,0.041321,-0.000427,0.007812,-0.027344,-0.003906
8317330000,0.999146,-0.007935,0.041321,-0.000427,0.007812,0.011719,-0.042969
8337402000,0.999146,-0.007935,0.041321,-0.000427,-0.031250,0.011719,0.035156
8366683000,0.999146,-0.007935,0.041321,-0.000427,0.007812,-0.027344,-0.003906
8375971000,0.999146,-0.007935,0.041321,-0.000427,0.007812,0.019531,-0.003906
8397593000,0.999146,-0.007935,0.041321,-0.000427,0.007812,0.011719,-0.003906
8425287000,0.999146,-0.007935,0.041321,-0.000427,0.007812,0.011719,-0.003906
8435296000,0.999146,-0.007935,0.041321,-0.000427,0.007812,0.011719,-0.003906
8465662000,0.999146,-0.007935,0.041321,-0.000427,0.007812,0.011719,-0.042969
8476959000,0.999146,-0.007935,0.041321,-0.000427,0.007812,0.011719,-0.003906
8496970000,0.999146,-0.007935,0.041321,-0.000427,-0.031250,0.011719,-0.003906
8526249000,0.999146,-0.007935,0.041321,-0.000427,-0.031250,0.011719,0.035156
8536508000,0.999146,-0.007935,0.041321,-0.000427,0.007812,0.011719,-0.003906
8557403000,0.999146,-0.007935,0.041321,-0.000427,0.007812,0.011719,-0.003906
8577128000,0.999146,-0.007935,0.041321,-0.000427,0.007812,0.011719,-0.003906
8606877000,0.999146,-0.007935,0.041321,-0.000427,-0.031250,0.011719,-0.003906
8616299000,0.999146,-0.007935,0.041321,-0.000427,0.007812,0.011719,-0.003906
8637059000,0.999146,-0.007935,0.041321,-0.000427,-0.031250,0.011719,-0.003906
8666554000,0.999146,-0.007935,0.041321,-0.000427,0.007812,0.011719,-0.003906
8676072000,0.999146,-0.007935,0.041321,-0.000427,0.007812,0.011719,-0.003906
8697176000,0.999146,-0.007935,0.041321,-0.000427,0.007812,-0.027344,0.035156
8725682000,0.999146,-0.007935,0.041321,-0.000427,0.007812,0.011719,-0.003906
8736259000,0.999146,-0.007935,0.041321,-0.000427,0.007812,0.011719,0.035156
8768860000,0.999146,-0.007935,0.041321,-0.000427,0.007812,0.011719,-0.003906
8776048000,0.999146,-0.007935,0.041321,-0.000427,0.007812,0.011719,-0.003906
8796590000,0.999146,-0.007935,0.041321,-0.000427,0.007812,-0.027344,-0.003906
8816971000,0.999146,-0.007935,0.041321,-0.000427,0.007812,-0.027344,-0.003906
8845556000,0.999146,-0.007935,0.041321,-0.000427,0.007812,-0.027344,-0.003906
8855891000,0.999146,-0.007935,0.041321,-0.000427,0.007812,0.011719,-0.003906
8876646000,0.999146,-0.007935,0.041321,-0.000427,0.007812,0.011719,-0.003906
8905338000,0.999146,-0.007935,0.041321,-0.000427,0.007812,0.011719,0.035156
8915423000,0.999146,-0.007935,0.041321,-0.000427,0.007812,0.011719,-0.003906
8936615000,0.999146,-0.007935,0.041321,-0.000427,-0.031250,0.011719,-0.003906
8956914000,0.999146,-0.007935,0.041321,-0.000427,0.007812,-0.027344,-0.003906
8984986000,0.999146,-0.007935,0.041321,-0.000427,0.007812,0.011719,-0.003906
8995269000,0.999146,-0.007935,0.041321,-0.000427,-0.031250,0.011719,0.035156
9025119000,0.999146,-0.007935,0.041321,-0.000427,0.007812,0.011719,-0.003906
9035278000,0.999146,-0.007935,0.041321,-0.000427,-0.031250,-0.027344,-0.003906
9057006000,0.999146,-0.007935,0.041321,-0.000427,0.046875,0.011719,-0.003906
9085052000,0.999146,-0.007935,0.041321,-0.000427,0.007812,-0.027344,-0.003906
9095406000,0.999146,-0.007935,0.041321,-0.000427,0.046875,-0.027344,-0.003906
9116400000,0.999146,-0.007935,0.041321,-0.000427,0.007812,0.011719,0.035156
9136684000,0.999146,-0.007935,0.041321,-0.000427,0.007812,-0.027344,-0.003906
9164422000,0.999146,-0.007935,0.041321,-0.000427,0.007812,0.019531,0.035156
9183748000,0.999146,-0.007935,0.041321,-0.000427,0.007812,0.019531,-0.003906
9196413000,0.999146,-0.007935,0.041321,-0.000427,0.007812,0.019531,0.035156
9224805000,0.999146,-0.007935,0.041321,-0.000427,0.007812,0.019531,0.035156
9244762000,0.999146,-0.007935,0.041321,-0.000427,0.007812,-0.019531,-0.003906
9255299000,0.999146,-0.007935,0.041321,-0.000427,0.007812,0.019531,-0.003906
9290203000,0.999146,-0.007935,0.041321,-0.000427,-0.031250,0.019531,-0.003906
9304418000,0.999146,-0.007935,0.041321,-0.000427,0.007812,0.019531,0.035156
9324117000,0.999146,-0.007935,0.041321,-0.000427,0.007812,-0.019531,0.035156
9335330000,0.999146,-0.007935,0.041321,-0.000427,0.007812,0.019531,-0.003906
9364464000,0.999146,-0.007935,0.041321,-0.000427,-0.031250,0.019531,0.035156
9384320000,0.999146,-0.007935,0.041321,-0.000427,0.007812,-0.019531,0.035156
9403927000,0.999146,-0.007935,0.041321,-0.000427,0.007812,0.019531,-0.003906
9415291000,0.999146,-0.007935,0.041321,-0.000427,-0.031250,0.011719,-0.003906
9444250000,0.999146,-0.007935,0.041321,-0.000427,0.007812,0.011719,-0.003906
9464042000,0.999146,-0.007935,0.041321,-0.000427,-0.031250,0.011719,-0.003906
9486218000,0.999146,-0.007935,0.041321,-0.000427,0.007812,0.011719,0.035156
9508007000,0.999146,-0.007935,0.041321,-0.000427,0.007812,0.011719,-0.003906
9525361000,0.999146,-0.007935,0.041321,-0.000427,0.007812,0.011719,-0.003906
9543951000,0.999146,-0.007935,0.041321,-0.000427,0.007812,0.011719,-0.003906
9563721000,0.999146,-0.007935,0.041321,-0.000427,-0.031250,-0.027344,0.035156
9585996000,0.999146,-0.007935,0.041321,-0.000427,0.007812,0.011719,-0.003906
9610742000,0.999146,-0.007935,0.041321,-0.000427,0.046875,-0.027344,0.035156
9623229000,0.999146,-0.007935,0.041321,-0.000427,-0.031250,0.011719,0.035156
9643758000,0.999146,-0.007935,0.041321,-0.000427,0.007812,0.011719,0.035156
9668991000,0.999146,-0.007935,0.041321,-0.000427,-0.031250,0.011719,0.035156
9683335000,0.999146,-0.007935,0.041321,-0.000427,-0.031250,0.011719,-0.003906
9702860000,0.999146,-0.007935,0.041321,-0.000427,0.007812,0.011719,-0.003906
9723779000,0.999146,-0.007935,0.041321,-0.000427,-0.031250,-0.027344,0.035156
9750148000,0.999146,-0.007935,0.041321,-0.000427,0.007812,-0.027344,-0.003906
9762891000,0.999146,-0.007935,0.041321,-0.000427,-0.031250,0.011719,-0.003906
9784624000,0.999146,-0.007935,0.041321,-0.000427,-0.031250,-0.027344,0.035156
9807256000,0.999146,-0.007935,0.041321,-0.000427,0.007812,0.011719,-0.003906
9823327000,0.999146,-0.007935,0.041321,-0.000427,0.007812,0.011719,0.035156
9843084000,0.999146,-0.007935,0.041321,-0.000427,-0.031250,0.011719,-0.003906
9862972000,0.999146,-0.007935,0.041321,-0.000427,0.007812,0.011719,-0.003906
9886943000,0.999146,-0.007935,0.041321,-0.000427,0.007812,0.011719,-0.003906
9902977000,0.999146,-0.007935,0.041321,-0.000427,0.007812,0.011719,-0.003906
9922476000,0.999146,-0.007935,0.041321,-0.000427,-0.031250,-0.027344,-0.003906
9942566000,0.999146,-0.007935,0.041321,-0.000427,0.007812,0.011719,0.035156
9962806000,0.999146,-0.007935,0.041321,-0.000427,0.007812,-0.027344,-0.003906
9983006000,0.999146,-0.007935,0.041321,-0.000427,0.007812,0.011719,-0.003906
10002307000,0.999146,-0.007935,0.041321,-0.000427,0.007812,0.011719,-0.003906
10022254000,0.999146,-0.007935,0.041321,-0.000427,0.007812,-0.027344,-0.003906
10042808000,0.999146,-0.007935,0.041321,-0.000427,-0.031250,-0.027344,-0.003906
10062445000,0.999146,-0.007935,0.041321,-0.000427,-0.031250,-0.027344,0.035156
10083181000,0.999146,-0.007935,0.041321,-0.000427,0.007812,0.011719,0.035156
10101968000,0.999146,-0.007935,0.041321,-0.000427,0.007812,0.011719,-0.003906
10122308000,0.999146,-0.007935,0.041321,-0.000427,0.007812,0.011719,0.035156
10141716000,0.999146,-0.007935,0.041321,-0.000427,0.007812,-0.027344,-0.003906
10168044000,0.999146,-0.007935,0.041321,-0.000427,0.007812,0.019531,-0.003906
10181671000,0.999146,-0.007935,0.041321,-0.000427,0.007812,0.019531,-0.003906
10201633000,0.999146,-0.007935,0.041321,-0.000427,-0.031250,0.019531,-0.003906
10227262000,0.999146,-0.007935,0.041321,-0.000427,0.007812,0.019531,-0.003906
10242106000,0.999146,-0.007935,0.041321,-0.000427,0.007812,-0.019531,-0.003906
10261426000,0.999146,-0.007935,0.041321,-0.000427,0.007812,0.019531,0.035156
10291477000,0.999146,-0.007935,0.041321,-0.000427,-0.031250,0.011719,-0.003906
10304723000,0.999146,-0.007935,0.041321,-0.000427,0.007812,0.011719,-0.003906
10321449000,0.999146,-0.007935,0.041321,-0.000427,0.007812,0.011719,-0.003906
10341162000,0.999146,-0.007935,0.041321,-0.000427,0.007812,0.011719,0.035156
10362002000,0.999146,-0.007935,0.041321,-0.000427,0.007812,0.011719,-0.003906
10388457000,0.999146,-0.007935,0.041321,-0.000427,0.007812,0.011719,0.035156
10400940000,0.999146,-0.007935,0.041321,-0.000427,0.007812,0.011719,0.035156
10421167000,0.999146,-0.007935,0.041321,-0.000427,0.007812,0.011719,-0.003906
10445517000,0.999146,-0.007935,0.041321,-0.000427,-0.031250,-0.027344,-0.003906
10461945000,0.999146,-0.007935,0.041321,-0.000427,0.007812,-0.027344,0.035156
10480866000,0.999146,-0.007935,0.041321,-0.000427,0.007812,0.011719,-0.003906
10501171000,0.999146,-0.007935,0.041321,-0.000427,0.007812,0.011719,-0.003906
10520829000,0.999146,-0.007935,0.041321,-0.000427,0.007812,0.011719,0.035156
10550875000,0.999146,-0.007935,0.041321,-0.000427,0.007812,0.011719,-0.003906
10561971000,0.999146,-0.007935,0.041321,-0.000427,0.007812,0.011719,-0.003906
10580750000,0.999146,-0.007935,0.041321,-0.000427,0.007812,0.011719,0.035156
10604039000,0.999146,-0.007935,0.041321,-0.000427,0.007812,0.011719,-0.003906
10620624000,0.999146,-0.007935,0.041321,-0.000427,0.007812,0.011719,-0.003906
10640568000,0.999146,-0.007935,0.041321,-0.000427,0.007812,0.011719,0.035156
10665192000,0.999146,-0.007935,0.041321,-0.000427,0.007812,0.011719,-0.003906
10680298000,0.999146,-0.007935,0.041321,-0.000427,-0.031250,0.011719,-0.003906
10699985000,0.999146,-0.007935,0.041321,-0.000427,0.007812,0.011719,0.035156
10720575000,0.999146,-0.007935,0.041321,-0.000427,0.007812,0.011719,0.035156
10746015000,0.999146,-0.007935,0.041321,-0.000427,0.007812,0.011719,0.035156
10760581000,0.999146,-0.007935,0.041321,-0.000427,-0.031250,0.011719,-0.003906
10780045000,0.999146,-0.007935,0.041321,-0.000427,0.007812,-0.027344,-0.003906
10800975000,0.999146,-0.007935,0.041321,-0.000427,-0.031250,0.050781,-0.042969
10827236000,0.999146,-0.007935,0.041321,-0.000427,0.007812,0.011719,-0.003906
10840022000,0.999146,-0.007935,0.041321,-0.000427,0.007812,0.011719,0.035156
10859682000,0.999146,-0.007935,0.041321,-0.000427,0.007812,-0.027344,-0.042969
10880507000,0.999146,-0.007935,0.041321,-0.000427,-0.031250,0.011719,-0.003906
10904487000,0.999146,-0.007935,0.041321,-0.000427,-0.031250,0.011719,-0.003906
10919423000,0.999146,-0.007935,0.041321,-0.000427,0.007812,-0.027344,-0.003906
10940218000,0.999146,-0.007935,0.041321,-0.000427,0.007812,0.011719,-0.003906
10959573000,0.999146,-0.007935,0.041321,-0.000427,0.007812,0.011719,-0.003906
10979574000,0.999146,-0.007935,0.041321,-0.000427,0.007812,0.011719,0.035156
10999948000,0.999146,-0.007935,0.041321,-0.000427,-0.031250,0.011719,0.035156
11021455000,0.999146,-0.007935,0.041321,-0.000427,0.007812,0.011719,-0.003906
11039202000,0.999146,-0.007935,0.041321,-0.000427,-0.031250,0.011719,-0.003906
11065417000,0.999146,-0.007935,0.041321,-0.000427,0.007812,-0.027344,-0.003906
11080938000,0.999146,-0.007935,0.041321,-0.000427,0.007812,-0.027344,-0.003906
11099716000,0.999146,-0.007935,0.041321,-0.000427,0.007812,0.011719,-0.003906
11121569000,0.999146,-0.007935,0.041321,-0.000427,0.007812,0.011719,0.035156
11145318000,0.999146,-0.007935,0.041321,-0.000427,0.007812,-0.027344,0.035156
11159128000,0.999146,-0.007935,0.041321,-0.000427,0.007812,0.011719,0.035156
11179260000,0.999146,-0.007935,0.041321,-0.000427,0.007812,0.011719,-0.003906
11198925000,0.999146,-0.007935,0.041321,-0.000427,0.007812,0.011719,0.035156
11219134000,0.999146,-0.007935,0.041321,-0.000427,0.007812,0.011719,-0.003906
11248990000,0.999146,-0.007935,0.041321,-0.000427,0.007812,0.011719,-0.003906
11259438000,0.999146,-0.007935,0.041321,-0.000427,0.007812,-0.027344,-0.042969
11279033000,0.999146,-0.007935,0.041321,-0.000427,0.007812,-0.027344,-0.003906
11309090000,0.999146,-0.007935,0.041321,-0.000427,-0.031250,-0.027344,0.035156
11318478000,0.999146,-0.007935,0.041321,-0.000427,0.007812,0.011719,-0.003906
11339807000,0.999146,-0.007935,0.041321,-0.000427,0.007812,-0.027344,0.035156
11358417000,0.999146,-0.007935,0.041321,-0.000427,-0.031250,0.011719,-0.003906
11388866000,0.999146,-0.007935,0.041321,-0.000427,0.007812,0.011719,-0.003906
11398406000,0.999146,-0.007935,0.041321,-0.000427,0.007812,0.011719,0.035156
11418687000,0.999146,-0.007935,0.041321,-0.000427,0.007812,0.011719,-0.003906
11448273000,0.999146,-0.007935,0.041321,-0.000427,0.007812,-0.027344,-0.003906
11458151000,0.999146,-0.007935,0.041321,-0.000427,0.007812,0.011719,-0.003906
11478353000,0.999146,-0.007935,0.041321,-0.000427,0.007812,-0.027344,0.035156
11500299000,0.999146,-0.007935,0.041321,-0.000427,0.007812,0.011719,0.035156
11517975000,0.999146,-0.007935,0.041321,-0.000427,0.007812,-0.027344,-0.003906
11538322000,0.999146,-0.007935,0.041321,-0.000427,0.007812,0.011719,0.035156
11563831000,0.999146,-0.007935,0.041321,-0.000427,0.007812,0.011719,-0.003906
11577693000,0.999146,-0.007935,0.041321,-0.000427,0.007812,0.011719,-0.003906
11599434000,0.999146,-0.007935,0.041321,-0.000427,0.007812,0.011719,-0.003906
11628234000,0.999146,-0.007935,0.041321,-0.000427,0.007812,0.011719,-0.003906
11637787000,0.999146,-0.007935,0.041321,-0.000427,0.007812,0.011719,-0.042969
11667849000,0.999146,-0.007935,0.041321,-0.000427,0.007812,-0.027344,-0.003906
11677381000,0.999146,-0.007935,0.041321,-0.000427,0.007812,0.011719,-0.003906
11698224000,0.999146,-0.007935,0.041321,-0.000427,0.007812,0.011719,-0.003906
11727791000,0.999146,-0.007935,0.041321,-0.000427,0.000000,0.011719,-0.003906
11737987000,0.999146,-0.007935,0.041321,-0.000427,0.000000,0.011719,-0.003906
11757679000,0.999146,-0.007935,0.041321,-0.000427,0.000000,0.011719,-0.003906
11777978000,0.999146,-0.007935,0.041321,-0.000427,0.000000,0.011719,0.042969
11807906000,0.999146,-0.007935,0.041321,-0.000427,0.000000,0.011719,0.003906
11818099000,0.999146,-0.007935,0.041321,-0.000427,0.000000,0.011719,0.035156
11839949000,0.999146,-0.007935,0.041321,-0.000427,0.000000,0.011719,-0.003906
11858792000,0.999146,-0.007935,0.041321,-0.000427,0.000000,0.011719,-0.003906
11877280000,0.999146,-0.007935,0.041321,-0.000427,0.000000,-0.027344,-0.003906
11897576000,0.999084,-0.008118,0.041321,-0.000183,0.343750,-0.066406,-0.003906
11917203000,0.999084,-0.008423,0.041260,0.000000,0.941406,0.050781,0.035156
11947548000,0.999146,-0.009155,0.040894,0.000305,1.195312,0.019531,0.265625
11957454000,0.999146,-0.009521,0.040771,0.000549,1.195312,-0.242188,-0.082031
11977310000,0.999146,-0.010376,0.040283,0.000488,1.042969,0.226562,0.074219
12008221000,0.999207,-0.012573,0.038574,-0.000610,0.296875,0.441406,-1.000000
12017163000,0.999207,-0.012451,0.038330,-0.000732,-1.019531,-2.613281,4.093750
12037525000,0.999207,-0.013306,0.037842,-0.001099,-0.914062,-0.355469,1.289062
12066451000,0.999207,-0.013428,0.037476,-0.001343,-0.652344,0.226562,0.179688
12083333000,0.999207,-0.013733,0.037231,-0.001404,-0.460938,-0.148438,0.140625
12097372000,0.999207,-0.014160,0.036804,-0.001282,0.097656,-0.261719,-0.355469
12117865000,0.999207,-0.014282,0.036560,-0.001465,-0.062500,-0.023438,0.410156
12147216000,0.999268,-0.014709,0.036011,-0.001465,-0.035156,-0.093750,-0.089844
12156847000,0.999268,-0.014893,0.035889,-0.001404,0.074219,0.289062,-0.011719
12177145000,0.999268,-0.015320,0.035400,-0.001343,0.144531,-0.125000,-0.050781
12197323000,0.999268,-0.015564,0.034973,-0.001282,-0.171875,0.265625,-0.128906
12216986000,0.999268,-0.015808,0.034668,-0.001221,-0.257812,0.007812,0.171875
12237106000,0.999268,-0.016296,0.034119,-0.000977,0.273438,-0.406250,-0.136719
12258164000,0.999268,-0.016541,0.033691,-0.000916,-0.195312,-0.285156,0.746094
12286559000,0.999329,-0.016846,0.033020,-0.000854,0.019531,-0.285156,0.707031
12296325000,0.999329,-0.016968,0.032837,-0.000854,0.171875,0.105469,-0.058594
12317004000,0.999329,-0.017151,0.032349,-0.000732,-0.179688,0.113281,0.058594
12346478000,0.999329,-0.017212,0.031799,-0.000854,-0.273438,0.230469,0.171875
12362211000,0.999329,-0.017334,0.031616,-0.000854,-0.320312,-0.117188,-0.328125
12376877000,0.999390,-0.017334,0.031250,-0.000916,-0.472656,-0.078125,-0.058594
12396585000,0.999390,-0.017334,0.031067,-0.001038,-0.593750,0.265625,-0.136719
12426058000,0.999390,-0.017578,0.030640,-0.000977,-0.179688,0.007812,-0.058594
12441536000,0.999390,-0.017639,0.030518,-0.000916,-0.144531,0.046875,0.093750
12456685000,0.999390,-0.017700,0.030396,-0.000916,-0.144531,-0.031250,-0.058594
12476707000,0.999390,-0.017700,0.030212,-0.000793,-0.074219,-0.031250,0.093750
12496761000,0.999390,-0.017944,0.029968,-0.000610,0.308594,-0.070312,-0.097656
12525732000,0.999390,-0.018066,0.029541,-0.000366,0.218750,-0.062500,-0.136719
12535732000,0.999390,-0.018005,0.029236,-0.000183,0.027344,-0.136719,0.019531
12566464000,0.999451,-0.018127,0.028320,0.000610,-0.097656,0.054688,-0.097656
12585276000,0.999451,-0.018494,0.027649,0.001404,-0.035156,0.511719,-0.058594
12595257000,0.999451,-0.018616,0.027649,0.001282,-0.496094,0.820312,0.937500
12625254000,0.999451,-0.018616,0.027100,0.001343,-1.164062,0.214844,0.085938
12645910000,0.999451,-0.018555,0.026978,0.001343,-0.781250,-0.015625,-0.027344
12655316000,0.999451,-0.018616,0.026917,0.001343,-0.894531,0.062500,0.011719
12676756000,0.999451,-0.018677,0.026917,0.001343,-0.824219,0.023438,-0.105469
12697800000,0.999451,-0.018738,0.026855,0.001343,-0.175781,0.023438,-0.066406
12716881000,0.999451,-0.018677,0.026855,0.001282,-0.097656,0.023438,-0.066406
12738067000,0.999451,-0.018677,0.026855,0.001343,-0.097656,0.023438,-0.027344
12774698000,0.999451,-0.018677,0.026855,0.001343,-0.058594,0.023438,0.011719
12789749000,0.999451,-0.018738,0.026855,0.001282,-0.089844,-0.015625,-0.027344
12795622000,0.999451,-0.018738,0.026855,0.001282,-0.089844,0.023438,0.011719
12825440000,0.999451,-0.018738,0.026855,0.001282,-0.050781,-0.015625,0.050781
12841989000,0.999451,-0.018738,0.026855,0.001282,-0.089844,0.023438,0.011719
12856615000,0.999451,-0.018738,0.026855,0.001282,-0.050781,0.023438,-0.027344
12884815000,0.999451,-0.018738,0.026855,0.001343,-0.050781,0.015625,0.011719
12904747000,0.999451,-0.018799,0.026855,0.001343,-0.089844,0.015625,0.011719
12924153000,0.999451,-0.018799,0.026855,0.001282,-0.050781,0.015625,0.011719
12935181000,0.999451,-0.018738,0.026855,0.001343,-0.050781,0.015625,-0.027344
12966146000,0.999451,-0.018799,0.026855,0.001343,-0.042969,0.015625,-0.027344
12985029000,0.999451,-0.018738,0.026855,0.001343,-0.082031,0.015625,0.011719
13011182000,0.999451,-0.018738,0.026855,0.001343,-0.042969,0.015625,-0.027344
13024214000,0.999451,-0.018738,0.026794,0.001343,0.011719,0.015625,0.003906
13044222000,0.999451,-0.018738,0.026794,0.001343,-0.027344,-0.023438,0.003906
13064433000,0.999451,-0.018738,0.026794,0.001343,-0.027344,0.015625,0.003906
13090968000,0.999451,-0.018738,0.026794,0.001343,-0.027344,0.015625,0.003906
13104300000,0.999451,-0.018677,0.026794,0.001343,0.011719,0.015625,0.003906
13124824000,0.999451,-0.018677,0.026794,0.001343,0.011719,0.015625,0.003906
13144026000,0.999451,-0.018677,0.026794,0.001343,0.011719,0.015625,0.003906
13168001000,0.999451,-0.018616,0.026855,0.001282,-0.027344,-0.023438,0.003906
13184068000,0.999451,-0.018616,0.026855,0.001343,0.011719,-0.023438,0.042969
13203960000,0.999451,-0.018677,0.026855,0.001343,0.011719,-0.023438,0.003906
13225897000,0.999451,-0.018677,0.026855,0.001343,0.011719,0.015625,0.003906
13243803000,0.999451,-0.018677,0.026855,0.001343,-0.027344,-0.023438,0.003906
13263560000,0.999451,-0.018677,0.026855,0.001282,0.011719,0.015625,0.003906
13283571000,0.999451,-0.018677,0.026855,0.001343,0.011719,0.015625,0.003906
13303739000,0.999451,-0.018616,0.026855,0.001343,-0.019531,0.007812,-0.035156
13323828000,0.999451,-0.018677,0.026855,0.001343,-0.019531,-0.031250,0.003906
13343184000,0.999451,-0.018677,0.026794,0.001343,-0.019531,-0.031250,0.003906
13363510000,0.999451,-0.018677,0.026794,0.001343,0.019531,0.007812,0.003906
13383272000,0.999451,-0.018677,0.026794,0.001343,-0.019531,0.007812,0.003906
13413121000,0.999451,-0.018738,0.026794,0.001343,0.019531,0.007812,0.003906
13424071000,0.999451,-0.018738,0.026794,0.001343,0.019531,0.007812,-0.035156
13442976000,0.999451,-0.018738,0.026794,0.001343,-0.019531,0.007812,0.003906
13463481000,0.999451,-0.018738,0.026794,0.001343,0.019531,0.007812,-0.027344
13493031000,0.999451,-0.018677,0.026794,0.001343,0.019531,-0.031250,-0.027344
13503155000,0.999451,-0.018677,0.026794,0.001343,-0.019531,0.007812,0.011719
13523160000,0.999451,-0.018677,0.026794,0.001343,0.019531,-0.031250,0.011719
13543223000,0.999451,-0.018677,0.026794,0.001343,-0.019531,0.007812,0.011719
13563195000,0.999451,-0.018738,0.026794,0.001343,0.019531,0.007812,0.011719
13588463000,0.999451,-0.018738,0.026733,0.001343,-0.019531,0.015625,-0.027344
13602939000,0.999451,-0.018738,0.026733,0.001343,0.019531,-0.023438,-0.027344
13622638000,0.999451,-0.018738,0.026733,0.001404,0.019531,-0.023438,0.011719
13643038000,0.999451,-0.018738,0.026733,0.001404,0.019531,0.015625,0.011719
13667914000,0.999451,-0.018738,0.026733,0.001404,0.019531,0.015625,0.011719
13683343000,0.999451,-0.018738,0.026733,0.001404,0.019531,0.015625,0.011719
13702287000,0.999451,-0.018738,0.026733,0.001404,-0.019531,0.015625,0.011719
13728340000,0.999451,-0.018738,0.026733,0.001404,-0.019531,-0.023438,0.011719
13742165000,0.999451,-0.018738,0.026733,0.001404,0.019531,-0.023438,0.011719
13762420000,0.999451,-0.018738,0.026733,0.001404,-0.019531,-0.023438,0.003906
13789388000,0.999451,-0.018738,0.026733,0.001404,0.019531,-0.023438,0.003906
13802518000,0.999451,-0.018677,0.026733,0.001404,0.019531,0.015625,0.003906
13826231000,0.999451,-0.018677,0.026733,0.001404,0.019531,0.015625,0.003906
13842133000,0.999451,-0.018677,0.026733,0.001404,0.019531,0.015625,0.003906
13862264000,0.999451,-0.018677,0.026733,0.001404,0.011719,0.015625,0.003906
13882827000,0.999451,-0.018738,0.026672,0.001404,-0.027344,-0.023438,0.003906
13907546000,0.999451,-0.018738,0.026733,0.001404,0.050781,-0.023438,-0.035156
13922114000,0.999451,-0.018677,0.026733,0.001404,0.011719,-0.023438,-0.035156
13942077000,0.999451,-0.018677,0.026733,0.001404,0.011719,0.015625,0.003906
13971276000,0.999451,-0.018677,0.026733,0.001465,0.011719,-0.023438,0.003906
13991395000,0.999451,-0.018677,0.026733,0.001465,0.011719,0.015625,0.003906
14001641000,0.999451,-0.018677,0.026733,0.001465,0.011719,0.015625,-0.035156
14022649000,0.999451,-0.018677,0.026733,0.001465,-0.027344,0.015625,-0.035156
14041705000,0.999451,-0.018677,0.026733,0.001465,-0.027344,0.015625,0.011719
14062014000,0.999451,-0.018677,0.026733,0.001465,0.011719,-0.023438,-0.027344
14086884000,0.999451,-0.018677,0.026733,0.001465,0.011719,-0.023438,-0.027344
14101502000,0.999451,-0.018677,0.026733,0.001465,-0.027344,-0.023438,0.011719
14120966000,0.999451,-0.018677,0.026733,0.001465,0.011719,-0.023438,0.011719
14145924000,0.999451,-0.018677,0.026733,0.001465,0.011719,-0.023438,0.011719
14161158000,0.999451,-0.018677,0.026733,0.001465,-0.027344,-0.023438,0.011719
14181184000,0.999451,-0.018677,0.026733,0.001465,0.011719,0.015625,0.011719
14211535000,0.999451,-0.018677,0.026733,0.001465,0.011719,-0.023438,0.011719
14220971000,0.999451,-0.018677,0.026733,0.001465,0.011719,-0.023438,-0.027344
14240554000,0.999451,-0.018677,0.026733,0.001465,0.011719,0.015625,0.011719
14261649000,0.999451,-0.018677,0.026733,0.001465,0.011719,0.015625,0.011719
14286405000,0.999451,-0.018677,0.026733,0.001465,0.011719,0.015625,0.050781
14300870000,0.999451,-0.018677,0.026733,0.001465,0.011719,-0.023438,0.011719
14320788000,0.999451,-0.018677,0.026733,0.001465,0.011719,0.015625,0.003906
14350399000,0.999451,-0.018677,0.026733,0.001465,-0.027344,-0.023438,-0.035156
14367675000,0.999451,-0.018677,0.026733,0.001465,0.011719,0.015625,0.003906
14380456000,0.999451,-0.018677,0.026733,0.001465,0.011719,0.015625,-0.035156
14400041000,0.999451,-0.018677,0.026733,0.001465,0.011719,0.015625,0.003906
14420412000,0.999451,-0.018677,0.026733,0.001465,0.011719,-0.023438,-0.035156
14446360000,0.999451,-0.018677,0.026733,0.001465,-0.027344,0.015625,0.003906
14460466000,0.999451,-0.018677,0.026733,0.001465,0.011719,0.015625,0.003906
14481889000,0.999451,-0.018677,0.026733,0.001465,-0.027344,0.015625,0.003906
14502548000,0.999451,-0.018677,0.026733,0.001465,0.011719,0.015625,0.003906
14520165000,0.999451,-0.018677,0.026733,0.001465,-0.027344,0.015625,0.003906
14541513000,0.999451,-0.018677,0.026733,0.001465,0.011719,-0.023438,0.003906
14559981000,0.999451,-0.018677,0.026733,0.001465,-0.027344,0.015625,0.003906
14579983000,0.999451,-0.018677,0.026733,0.001465,0.011719,-0.031250,0.042969
14600763000,0.999451,-0.018677,0.026733,0.001465,0.011719,0.007812,-0.035156
14626972000,0.999451,-0.018677,0.026733,0.001465,-0.027344,0.007812,0.003906
14639524000,0.999451,-0.018677,0.026733,0.001465,0.011719,0.007812,0.003906
14659336000,0.999451,-0.018677,0.026733,0.001465,0.011719,0.007812,0.003906
14679638000,0.999451,-0.018677,0.026733,0.001465,0.011719,-0.031250,0.003906
14700296000,0.999451,-0.018677,0.026733,0.001465,0.011719,0.007812,0.003906
14720993000,0.999451,-0.018677,0.026733,0.001465,0.011719,0.007812,0.003906
14739947000,0.999451,-0.018677,0.026733,0.001465,0.011719,-0.031250,0.003906
14759297000,0.999451,-0.018677,0.026733,0.001465,0.011719,-0.031250,0.003906
14780657000,0.999451,-0.018677,0.026733,0.001465,-0.027344,0.007812,0.003906
14809709000,0.999451,-0.018677,0.026733,0.001465,0.011719,0.015625,-0.035156
14819051000,0.999451,-0.018677,0.026733,0.001465,0.011719,0.015625,-0.035156
14839053000,0.999451,-0.018677,0.026733,0.001465,0.011719,-0.023438,0.003906
14859393000,0.999451,-0.018677,0.026733,0.001465,0.011719,0.015625,0.003906
14880626000,0.999451,-0.018677,0.026733,0.001465,-0.027344,0.015625,0.003906
14898873000,0.999451,-0.018677,0.026733,0.001465,-0.027344,0.007812,0.042969
14919106000,0.999451,-0.018677,0.026733,0.001465,0.011719,0.007812,-0.035156
14938665000,0.999451,-0.018677,0.026733,0.001465,0.011719,0.007812,-0.035156
14968804000,0.999451,-0.018677,0.026733,0.001465,0.011719,0.007812,0.003906
14978530000,0.999451,-0.018677,0.026733,0.001465,-0.027344,0.007812,-0.035156
14999538000,0.999451,-0.018677,0.026733,0.001465,0.011719,0.007812,-0.035156
15020383000,0.999451,-0.018677,0.026733,0.001465,0.011719,0.007812,0.003906
15043928000,0.999451,-0.018677,0.026733,0.001465,0.011719,0.007812,0.011719
15058445000,0.999451,-0.018677,0.026733,0.001465,-0.027344,0.007812,0.011719
15085581000,0.999451,-0.018677,0.026733,0.001465,0.011719,0.007812,0.011719
15098800000,0.999451,-0.018677,0.026733,0.001465,0.011719,-0.031250,0.011719
15120475000,0.999451,-0.018677,0.026733,0.001465,0.011719,0.007812,0.003906
15138082000,0.999451,-0.018677,0.026733,0.001465,0.011719,-0.031250,0.003906
15158749000,0.999451,-0.018677,0.026733,0.001465,-0.027344,0.007812,0.003906
15178083000,0.999451,-0.018677,0.026733,0.001465,0.011719,-0.031250,0.003906
15208424000,0.999451,-0.018677,0.026733,0.001465,0.011719,-0.031250,0.003906
15225648000,0.999451,-0.018677,0.026733,0.001465,0.011719,0.007812,0.003906
15238086000,0.999451,-0.018677,0.026733,0.001465,-0.027344,0.007812,-0.035156
15258198000,0.999451,-0.018677,0.026733,0.001465,0.011719,-0.031250,0.003906
15288388000,0.999451,-0.018677,0.026733,0.001465,0.011719,-0.023438,0.003906
15298185000,0.999451,-0.018677,0.026733,0.001465,-0.027344,0.015625,0.003906
15320796000,0.999451,-0.018677,0.026733,0.001465,0.011719,0.015625,-0.035156
15338414000,0.999451,-0.018677,0.026733,0.001465,0.011719,-0.023438,-0.035156
15367701000,0.999451,-0.018677,0.026733,0.001465,0.011719,0.015625,0.003906
15384688000,0.999451,-0.018677,0.026733,0.001465,0.050781,-0.023438,0.003906
15397723000,0.999451,-0.018677,0.026733,0.001465,0.011719,0.015625,0.003906
15418302000,0.999451,-0.018677,0.026733,0.001465,0.011719,-0.023438,0.003906
15447233000,0.999451,-0.018677,0.026733,0.001465,0.011719,0.015625,0.003906
15457747000,0.999451,-0.018677,0.026733,0.001465,0.011719,0.015625,-0.035156
15487315000,0.999451,-0.018677,0.026733,0.001465,-0.027344,-0.023438,0.003906
15497499000,0.999451,-0.018677,0.026733,0.001465,-0.027344,0.015625,0.003906
15517936000,0.999451,-0.018677,0.026733,0.001465,-0.027344,0.054688,-0.035156
15537156000,0.999451,-0.018677,0.026733,0.001465,-0.027344,-0.023438,0.042969
15557391000,0.999451,-0.018677,0.026733,0.001465,0.011719,0.015625,0.003906
15586831000,0.999451,-0.018677,0.026672,0.001465,1.343750,-0.062500,0.042969
15597474000,0.999451,-0.018677,0.026550,0.001526,1.250000,-0.023438,0.003906
15617197000,0.999451,-0.018677,0.026245,0.001587,1.128906,0.207031,-0.066406
15647409000,0.999512,-0.018738,0.025818,0.001831,1.195312,0.128906,0.011719
15657450000,0.999512,-0.018738,0.025574,0.001892,0.781250,-0.023438,-0.027344
15677823000,0.999512,-0.018799,0.024719,0.001831,0.816406,-0.015625,-0.066406
15697104000,0.999573,-0.018738,0.023010,0.001831,0.097656,0.097656,-0.527344
15717716000,0.999695,-0.019287,0.016968,0.001831,0.378906,0.144531,-1.750000
15738002000,0.999817,-0.013977,0.013306,0.002014,0.421875,-0.078125,-4.539062
15763626000,0.999695,-0.019165,0.014404,0.001709,-0.605469,2.265625,3.496094
15777303000,0.999695,-0.019226,0.013672,0.001770,-1.562500,-1.410156,5.679688
15797404000,0.999756,-0.018799,0.013245,0.001892,-0.675781,-1.125000,-1.332031
15818179000,0.999756,-0.018860,0.013245,0.001892,0.726562,0.207031,0.433594
15846071000,0.999756,-0.018860,0.013306,0.001831,-0.730469,-0.062500,0.011719
15856389000,0.999756,-0.018860,0.013306,0.001831,-0.574219,-0.023438,0.050781
15877532000,0.999756,-0.018860,0.013306,0.001709,-0.382812,-0.023438,0.078125
15897081000,0.999756,-0.018738,0.013306,0.001709,-0.851562,0.054688,0.078125
15925871000,0.999756,-0.018677,0.013306,0.001709,-0.851562,-0.292969,-0.187500
15936948000,0.999756,-0.018799,0.013428,0.001648,-0.890625,0.207031,0.195312
15957102000,0.999756,-0.018860,0.013489,0.001526,-1.011719,-0.101562,-0.187500
15977066000,0.999756,-0.018677,0.013367,0.001465,-1.281250,-0.062500,-0.074219
16007167000,0.999756,-0.018677,0.013428,0.001343,-1.011719,-0.062500,0.003906
16016345000,0.999756,-0.018738,0.013489,0.001404,-0.667969,-0.023438,-0.074219
16039180000,0.999756,-0.018677,0.013428,0.001709,-0.667969,0.015625,-0.003906
16065988000,0.999756,-0.018738,0.013489,0.001648,-0.781250,-0.253906,-0.042969
16075976000,0.999756,-0.018738,0.013489,0.001709,-0.667969,-0.062500,-0.003906
16097034000,0.999756,-0.018738,0.013550,0.001709,-0.429688,-0.023438,-0.003906
16117403000,0.999756,-0.018738,0.013489,0.001709,-0.351562,0.015625,-0.042969
16136649000,0.999756,-0.018677,0.013489,0.001709,-0.160156,-0.023438,-0.003906
16156676000,0.999756,-0.018677,0.013489,0.001770,0.105469,-0.023438,-0.003906
16185677000,0.999756,-0.018738,0.013428,0.001770,0.031250,0.015625,0.035156
16201794000,0.999756,-0.018738,0.013489,0.001770,0.031250,0.015625,-0.003906
16216274000,0.999756,-0.018738,0.013489,0.001709,-0.160156,-0.023438,-0.003906
16236654000,0.999756,-0.018616,0.013550,0.001709,-0.277344,0.015625,0.035156
16265061000,0.999756,-0.018616,0.013611,0.001709,-0.191406,0.015625,0.035156
16275264000,0.999756,-0.018616,0.013611,0.001648,-0.460938,0.015625,0.035156
16304919000,0.999756,-0.018616,0.013550,0.001709,-0.804688,-0.253906,-0.042969
16315330000,0.999756,-0.018555,0.013550,0.001648,-0.804688,0.167969,-0.042969
16336479000,0.999756,-0.018616,0.013550,0.001709,-0.613281,-0.023438,-0.050781
16356776000,0.999756,-0.018616,0.013611,0.001709,-0.375000,-0.023438,-0.050781
16385064000,0.999756,-0.018616,0.013550,0.001709,-0.144531,0.015625,-0.011719
16395299000,0.999756,-0.018677,0.013550,0.001709,-0.109375,-0.023438,-0.050781
16425154000,0.999756,-0.018677,0.013611,0.001648,-0.367188,0.015625,0.027344
16446765000,0.999756,-0.018677,0.013611,0.001648,-0.253906,-0.023438,0.027344
16455542000,0.999756,-0.018677,0.013611,0.001648,-0.367188,-0.023438,-0.050781
16484610000,0.999756,-0.018677,0.013611,0.001709,-0.136719,0.015625,-0.011719
16504372000,0.999756,-0.018677,0.013611,0.001648,-0.128906,-0.023438,-0.011719
16524521000,0.999756,-0.018738,0.013611,0.001648,-0.246094,-0.062500,-0.011719
16535206000,0.999756,-0.018677,0.013611,0.001648,-0.167969,0.015625,0.027344
16564039000,0.999756,-0.018616,0.013611,0.001648,-0.054688,-0.023438,0.027344
16584760000,0.999756,-0.018616,0.013611,0.001648,-0.007812,0.015625,0.027344
16604317000,0.999756,-0.018616,0.013611,0.001587,-0.199219,-0.062500,-0.011719
16615289000,0.999756,-0.018616,0.013672,0.001587,-0.277344,0.128906,-0.011719
16644349000,0.999756,-0.018616,0.013733,0.001587,-0.113281,0.015625,0.062500
16668135000,0.999756,-0.018555,0.013733,0.001587,-0.144531,-0.023438,-0.011719
16684400000,0.999756,-0.018616,0.013672,0.001587,-0.335938,0.015625,-0.011719
16704418000,0.999756,-0.018616,0.013733,0.001587,-0.714844,-0.023438,0.085938
16724532000,0.999756,-0.018555,0.013794,0.001587,-0.480469,0.054688,0.011719
16735502000,0.999756,-0.018616,0.013733,0.001587,-0.578125,-0.023438,-0.027344
16765487000,0.999756,-0.018616,0.013733,0.001526,-0.019531,-0.023438,0.042969
16788511000,0.999756,-0.018555,0.013672,0.001526,-0.039062,0.015625,0.042969
16804480000,0.999756,-0.018616,0.013672,0.001526,0.003906,-0.023438,-0.035156
16824012000,0.999756,-0.018616,0.013672,0.001526,-0.023438,-0.023438,0.011719
16835329000,0.999756,-0.018616,0.013672,0.001526,0.011719,0.015625,0.011719
16863592000,0.999756,-0.018616,0.013672,0.001526,0.019531,0.015625,0.003906
16883436000,0.999756,-0.018555,0.013672,0.001526,0.019531,0.015625,0.011719
16903956000,0.999756,-0.018555,0.013611,0.001526,0.027344,0.015625,0.011719
16923533000,0.999756,-0.018555,0.013611,0.001526,-0.007812,0.015625,-0.035156
16943695000,0.999756,-0.018555,0.013611,0.001526,0.066406,-0.023438,0.003906
16967420000,0.999756,-0.018555,0.013611,0.001587,0.019531,-0.023438,0.042969
16983804000,0.999756,-0.018555,0.013672,0.001587,0.019531,0.015625,0.042969
17003072000,0.999756,-0.018555,0.013672,0.001587,0.019531,-0.023438,0.003906
17024196000,0.999756,-0.018555,0.013672,0.001587,0.019531,-0.023438,0.003906
17049592000,0.999756,-0.018555,0.013672,0.001587,0.019531,-0.023438,-0.035156
17063311000,0.999756,-0.018494,0.013672,0.001587,0.019531,0.015625,0.003906
17082787000,0.999756,-0.018494,0.013672,0.001587,0.050781,0.015625,0.003906
17103401000,0.999756,-0.018494,0.013672,0.001587,0.011719,-0.023438,0.003906
17122763000,0.999756,-0.018494,0.013672,0.001587,0.011719,0.015625,0.003906
17143572000,0.999756,-0.018494,0.013672,0.001587,0.011719,-0.023438,0.003906
17173075000,0.999756,-0.018494,0.013672,0.001587,0.011719,-0.023438,0.003906
17188909000,0.999756,-0.018494,0.013672,0.001587,0.003906,0.015625,0.003906
17202765000,0.999756,-0.018433,0.013733,0.001587,0.003906,0.007812,0.003906
17223214000,0.999756,-0.018433,0.013672,0.001587,0.003906,-0.031250,0.003906
17248030000,0.999756,-0.018433,0.013672,0.001587,0.003906,-0.031250,0.003906
17262259000,0.999756,-0.018433,0.013672,0.001587,0.003906,0.007812,0.003906
17282333000,0.999756,-0.018433,0.013733,0.001587,0.003906,-0.031250,0.003906
17302250000,0.999756,-0.018372,0.013672,0.001587,0.003906,0.015625,0.003906
17323307000,0.999756,-0.018372,0.013672,0.001587,0.003906,-0.023438,0.042969
17342514000,0.999756,-0.018372,0.013672,0.001587,0.003906,0.015625,0.003906
17362862000,0.999756,-0.018372,0.013672,0.001587,0.003906,-0.023438,0.042969
17382162000,0.999756,-0.018372,0.013672,0.001648,-0.039062,-0.023438,0.042969
17412462000,0.999756,-0.018372,0.013672,0.001648,-0.003906,-0.023438,0.003906
17421948000,0.999756,-0.018372,0.013672,0.001648,-0.003906,-0.023438,0.003906
17442231000,0.999756,-0.018372,0.013672,0.001587,-0.031250,-0.023438,0.003906
17461988000,0.999756,-0.018372,0.013733,0.001648,0.003906,0.015625,0.042969
17492030000,0.999756,-0.018372,0.013733,0.001648,0.003906,-0.023438,0.003906
17508112000,0.999756,-0.018433,0.013733,0.001587,0.003906,-0.023438,0.003906
17521759000,0.999756,-0.018433,0.013733,0.001587,0.003906,-0.023438,0.003906
17541987000,0.999756,-0.018433,0.013733,0.001648,0.003906,0.015625,0.003906
17568019000,0.999756,-0.018372,0.013733,0.001648,0.003906,-0.023438,0.003906
17581318000,0.999756,-0.018372,0.013733,0.001648,0.003906,0.015625,0.003906
17601408000,0.999756,-0.018433,0.013733,0.001648,-0.031250,-0.023438,0.003906
17626037000,0.999756,-0.018372,0.013733,0.001648,0.003906,-0.023438,0.042969
17641908000,0.999756,-0.018372,0.013672,0.001648,0.003906,0.015625,0.003906
17662341000,0.999756,-0.018372,0.013672,0.001648,0.003906,0.015625,0.003906
17691358000,0.999756,-0.018372,0.013733,0.001648,-0.003906,0.015625,0.003906
17701783000,0.999756,-0.018372,0.013672,0.001648,-0.003906,0.015625,0.003906
17721149000,0.999756,-0.018372,0.013672,0.001648,-0.003906,0.015625,0.003906
17741636000,0.999756,-0.018372,0.013733,0.001648,-0.003906,0.015625,0.003906
17766791000,0.999756,-0.018372,0.013733,0.001648,0.035156,-0.023438,0.003906
17781381000,0.999756,-0.018372,0.013733,0.001648,-0.003906,-0.023438,0.003906
17800866000,0.999756,-0.018372,0.013733,0.001648,-0.003906,-0.023438,0.003906
17831051000,0.999756,-0.018311,0.013733,0.001648,-0.003906,-0.023438,0.003906
17847376000,0.999756,-0.018311,0.013733,0.001648,-0.039062,0.015625,0.003906
17860680000,0.999756,-0.018372,0.013733,0.001648,-0.003906,0.015625,0.003906
17882470000,0.999756,-0.018372,0.013733,0.001648,-0.003906,-0.023438,0.042969
17904039000,0.999756,-0.018372,0.013733,0.001648,-0.003906,-0.023438,0.003906
17920452000,0.999756,-0.018372,0.013733,0.001648,-0.003906,0.015625,0.003906
17940478000,0.999756,-0.018372,0.013733,0.001648,-0.003906,-0.023438,-0.035156
17961975000,0.999756,-0.018311,0.013733,0.001648,-0.003906,-0.023438,0.003906
17989087000,0.999756,-0.018311,0.013733,0.001648,-0.003906,-0.023438,0.003906
18000638000,0.999756,-0.018311,0.013733,0.001648,0.035156,-0.015625,0.003906
18020331000,0.999756,-0.018311,0.013733,0.001648,-0.039062,0.023438,0.003906
18050195000,0.999756,-0.018311,0.013733,0.001648,-0.003906,-0.015625,-0.035156
18060087000,0.999756,-0.018311,0.013733,0.001648,-0.003906,0.023438,0.003906
18080701000,0.999756,-0.018311,0.013733,0.001648,-0.003906,0.023438,0.003906
18110335000,0.999756,-0.018311,0.013733,0.001648,-0.003906,-0.015625,0.003906
18119985000,0.999756,-0.018311,0.013733,0.001648,0.035156,0.023438,0.003906
18139762000,0.999756,-0.018311,0.013733,0.001648,-0.003906,-0.015625,0.003906
18160145000,0.999756,-0.018311,0.013733,0.001648,-0.003906,-0.015625,0.003906
18190059000,0.999756,-0.018311,0.013733,0.001648,-0.003906,-0.015625,0.003906
18199682000,0.999756,-0.018311,0.013733,0.001648,-0.003906,0.023438,0.042969
18219620000,0.999756,-0.018311,0.013733,0.001648,-0.003906,-0.015625,0.003906
18240997000,0.999756,-0.018311,0.013733,0.001648,-0.003906,-0.015625,0.003906
18263663000,0.999756,-0.018311,0.013733,0.001648,-0.003906,-0.015625,0.003906
18279487000,0.999756,-0.018311,0.013733,0.001648,-0.003906,0.023438,0.003906
18299793000,0.999756,-0.018311,0.013733,0.001648,-0.003906,-0.015625,0.003906
18319685000,0.999756,-0.018311,0.013733,0.001648,-0.039062,-0.015625,-0.035156
18345475000,0.999756,-0.018311,0.013733,0.001648,-0.003906,-0.015625,0.003906
18359254000,0.999756,-0.018311,0.013733,0.001648,-0.003906,0.023438,0.003906
18379627000,0.999756,-0.018311,0.013733,0.001648,-0.003906,0.023438,0.003906
18409854000,0.999756,-0.018311,0.013733,0.001648,-0.003906,-0.015625,-0.035156
18419131000,0.999756,-0.018311,0.013733,0.001648,-0.003906,-0.015625,0.042969
18439026000,0.999756,-0.018311,0.013733,0.001648,-0.003906,-0.015625,0.042969
18459297000,0.999756,-0.018311,0.013733,0.001648,-0.003906,-0.015625,0.003906
18489501000,0.999756,-0.018311,0.013733,0.001648,-0.003906,-0.015625,0.003906
18504934000,0.999756,-0.018311,0.013733,0.001648,-0.003906,-0.015625,0.003906
18518953000,0.999756,-0.018311,0.013733,0.001648,-0.003906,0.023438,0.003906
18538653000,0.999756,-0.018311,0.013733,0.001648,-0.003906,-0.015625,-0.035156
18560376000,0.999756,-0.018311,0.013733,0.001648,-0.003906,-0.015625,-0.035156
18584989000,0.999756,-0.018311,0.013733,0.001648,-0.003906,0.023438,0.003906
18601294000,0.999756,-0.018311,0.013733,0.001648,-0.003906,-0.015625,0.003906
18618503000,0.999756,-0.018311,0.013733,0.001648,-0.003906,-0.015625,0.003906
18639962000,0.999756,-0.018311,0.013733,0.001648,-0.003906,-0.015625,0.003906
18664264000,0.999756,-0.018311,0.013733,0.001648,-0.003906,-0.015625,0.003906
18678623000,0.999756,-0.018311,0.013733,0.001648,-0.003906,0.023438,0.003906
18700885000,0.999756,-0.018311,0.013733,0.001648,-0.003906,-0.015625,0.003906
18718202000,0.999756,-0.018311,0.013733,0.001648,-0.003906,-0.015625,0.003906
18738795000,0.999756,-0.018311,0.013733,0.001648,-0.003906,0.023438,0.042969
18758162000,0.999756,-0.018311,0.013733,0.001648,-0.003906,-0.015625,0.003906
18788634000,0.999756,-0.018311,0.013733,0.001648,-0.003906,0.023438,0.042969
18797930000,0.999756,-0.018311,0.013733,0.001648,-0.003906,-0.015625,-0.035156
18818099000,0.999756,-0.018311,0.013733,0.001648,-0.003906,0.023438,-0.035156
18839238000,0.999756,-0.018311,0.013733,0.001648,0.035156,-0.015625,0.003906
18863004000,0.999756,-0.018311,0.013733,0.001648,-0.003906,0.023438,0.003906
18877700000,0.999756,-0.018311,0.013733,0.001648,-0.003906,0.023438,0.003906
18908303000,0.999756,-0.018311,0.013733,0.001648,-0.003906,0.023438,0.003906
18917862000,0.999756,-0.018311,0.013733,0.001648,-0.003906,0.023438,0.003906
18938163000,0.999756,-0.018311,0.013733,0.001648,-0.003906,0.023438,0.003906
18968104000,0.999756,-0.018311,0.013733,0.001648,-0.003906,-0.015625,0.003906
18977831000,0.999756,-0.018311,0.013733,0.001648,-0.003906,-0.015625,0.042969
18997818000,0.999756,-0.018311,0.013733,0.001648,-0.003906,-0.015625,0.042969
19017903000,0.999756,-0.018311,0.013733,0.001648,-0.003906,0.023438,0.003906
19047776000,0.999756,-0.018311,0.013733,0.001648,-0.003906,0.015625,0.003906
19057816000,0.999756,-0.018311,0.013733,0.001648,-0.003906,-0.023438,-0.035156
19077590000,0.999756,-0.018311,0.013733,0.001648,-0.003906,0.015625,0.003906
19098055000,0.999756,-0.018311,0.013733,0.001648,-0.003906,0.015625,-0.035156
19117513000,0.999756,-0.018311,0.013733,0.001648,-0.003906,-0.023438,0.003906
19137000000,0.999756,-0.018311,0.013733,0.001648,-0.003906,-0.023438,0.042969
19157740000,0.999756,-0.018311,0.013733,0.001648,-0.003906,0.015625,0.003906
19178952000,0.999756,-0.018311,0.013733,0.001648,-0.039062,0.015625,-0.035156
19208578000,0.999756,-0.018311,0.013733,0.001648,-0.003906,-0.023438,-0.035156
19217612000,0.999756,-0.018311,0.013733,0.001648,-0.003906,-0.023438,0.042969
19237490000,0.999756,-0.018311,0.013733,0.001648,-0.003906,0.023438,0.003906
19257968000,0.999756,-0.018311,0.013733,0.001648,0.187500,-0.015625,0.003906
19286984000,0.999756,-0.018250,0.013672,0.001770,0.960938,-0.015625,0.003906
19296947000,0.999756,-0.018250,0.013611,0.001770,0.902344,-0.093750,0.042969
19317990000,0.999756,-0.018311,0.013672,0.001831,1.160156,0.097656,0.156250
19336926000,0.999756,-0.018066,0.013733,0.001770,0.683594,0.023438,0.070312
19366540000,0.999756,-0.018188,0.013855,0.001709,0.300781,-0.175781,-0.042969
19376676000,0.999756,-0.018127,0.013916,0.001709,-0.261719,0.054688,-0.003906
19397615000,0.999756,-0.018005,0.013855,0.001709,-0.843750,0.054688,0.035156
19426997000,0.999756,-0.018005,0.013977,0.001709,-0.699219,0.015625,0.070312
19436163000,0.999756,-0.017944,0.013977,0.001709,-0.582031,0.054688,0.035156
19463528000,0.999756,-0.017944,0.014038,0.001770,-0.468750,0.046875,0.070312
19476701000,0.999756,-0.018066,0.014099,0.001709,-0.542969,0.015625,-0.003906
19497057000,0.999756,-0.018005,0.014038,0.001770,-0.046875,-0.023438,-0.042969
19526913000,0.999756,-0.018066,0.014038,0.001709,-0.121094,0.015625,-0.121094
19536409000,0.999756,-0.018127,0.014099,0.001709,0.031250,0.015625,0.035156
19565927000,0.999756,-0.018127,0.014160,0.001648,-0.128906,-0.023438,-0.160156
19576247000,0.999756,-0.018066,0.014221,0.001648,-0.207031,-0.023438,-0.042969
19597132000,0.999756,-0.017944,0.014221,0.001648,-0.437500,0.015625,0.070312
19617238000,0.999756,-0.018066,0.014221,0.001648,-0.207031,-0.070312,-0.082031
19646153000,0.999756,-0.017822,0.014282,0.001587,-0.589844,-0.031250,-0.003906
19656040000,0.999756,-0.017822,0.014282,0.001648,-0.781250,-0.031250,-0.042969
19676677000,0.999756,-0.017822,0.014282,0.001648,-0.742188,0.046875,-0.234375
19697384000,0.999756,-0.017883,0.014282,0.001648,-1.089844,0.046875,-0.042969
19725674000,0.999756,-0.017944,0.014282,0.001648,-0.972656,-0.031250,-0.160156
19735178000,0.999756,-0.017944,0.014282,0.001648,-0.898438,0.046875,0.035156
19766108000,0.999756,-0.017822,0.014282,0.001648,-0.628906,0.046875,-0.042969
19782297000,0.999756,-0.017761,0.014282,0.001709,-0.398438,-0.031250,-0.003906
19796668000,0.999756,-0.017700,0.014282,0.001648,0.062500,0.007812,-0.003906
19816684000,0.999756,-0.017822,0.014282,0.001709,0.136719,0.007812,0.035156
19836714000,0.999756,-0.017822,0.014282,0.001648,0.335938,-0.031250,-0.003906
19865299000,0.999756,-0.017761,0.014404,0.001648,-0.382812,-0.031250,0.070312
19875294000,0.999756,-0.017761,0.014465,0.001648,-0.613281,-0.031250,-0.042969
19897477000,0.999756,-0.017883,0.014465,0.001648,-0.726562,0.007812,-0.003906
19916712000,0.999756,-0.017822,0.014465,0.001709,-0.574219,-0.031250,0.035156
19945378000,0.999756,-0.017822,0.014465,0.001709,-0.183594,0.007812,-0.042969
19960693000,0.999756,-0.017883,0.014465,0.001709,-0.183594,-0.031250,0.070312
19976676000,0.999756,-0.017822,0.014465,0.001648,-0.183594,0.007812,-0.003906
19996617000,0.999756,-0.017761,0.014526,0.001648,-0.414062,-0.031250,-0.042969
20025204000,0.999756,-0.017761,0.014465,0.001648,-0.867188,0.007812,0.035156
20045079000,0.999756,-0.017700,0.014465,0.001648,-0.253906,0.007812,-0.003906
20055350000,0.999756,-0.017700,0.014465,0.001648,-0.289062,0.007812,-0.003906
20084860000,0.999756,-0.017700,0.014465,0.001709,-0.246094,0.007812,-0.003906
20095275000,0.999756,-0.017700,0.014526,0.001709,-0.246094,0.007812,-0.003906
20126631000,0.999756,-0.017700,0.014526,0.001709,-0.246094,0.007812,-0.003906
20145239000,0.999756,-0.017700,0.014526,0.001709,-0.238281,0.007812,-0.003906
20164559000,0.999756,-0.017700,0.014526,0.001709,-0.238281,-0.031250,-0.003906
20175281000,0.999756,-0.017700,0.014526,0.001709,-0.238281,0.007812,0.035156
20206725000,0.999756,-0.017700,0.014526,0.001709,0.574219,0.007812,0.035156
20224226000,0.999756,-0.017700,0.014587,0.001709,0.804688,-0.031250,-0.003906
20244130000,0.999756,-0.017761,0.014587,0.001709,0.421875,0.007812,-0.042969
20268764000,0.999756,-0.017700,0.014526,0.001648,0.191406,0.007812,-0.042969
20284264000,0.999756,-0.017639,0.014587,0.001648,-0.652344,0.046875,-0.082031
20305499000,0.999756,-0.017578,0.014587,0.001587,-1.253906,0.007812,-0.042969
20324634000,0.999756,-0.017639,0.014587,0.001587,-1.445312,-0.039062,-0.082031
20344154000,0.999756,-0.017639,0.014526,0.001587,-0.144531,0.007812,-0.003906
20365037000,0.999756,-0.017639,0.014526,0.001587,-0.250000,-0.031250,-0.003906
20384219000,0.999756,-0.017639,0.014526,0.001587,-0.214844,0.007812,-0.003906
20404763000,0.999756,-0.017639,0.014526,0.001587,-0.250000,0.007812,-0.003906
20424015000,0.999756,-0.017639,0.014465,0.001587,-0.207031,0.007812,-0.003906
20449168000,0.999756,-0.017639,0.014465,0.001587,-0.242188,0.007812,-0.003906
20463930000,0.999756,-0.017639,0.014465,0.001587,-0.242188,0.007812,-0.003906
20483754000,0.999756,-0.017700,0.014465,0.001587,-0.234375,0.007812,-0.011719
20503818000,0.999756,-0.017700,0.014526,0.001587,-0.199219,0.007812,-0.011719
20526861000,0.999756,-0.017700,0.014526,0.001526,-0.234375,0.007812,-0.011719
20543645000,0.999756,-0.017700,0.014526,0.001587,-0.234375,0.007812,-0.011719
20563250000,0.999756,-0.017700,0.014526,0.001587,-0.226562,0.007812,-0.050781
20584517000,0.999756,-0.017639,0.014526,0.001526,-0.226562,-0.031250,-0.042969
20607160000,0.999756,-0.017700,0.014526,0.001526,-0.191406,0.007812,-0.042969
20623730000,0.999756,-0.017700,0.014526,0.001526,-0.218750,0.007812,-0.042969
20648955000,0.999756,-0.017700,0.014526,0.001526,-0.218750,-0.031250,-0.003906
20663270000,0.999756,-0.017639,0.014587,0.001587,-0.218750,0.007812,0.035156
20683452000,0.999756,-0.017639,0.014526,0.001587,-0.015625,0.007812,0.003906
20703993000,0.999756,-0.017639,0.014526,0.001587,-0.015625,-0.031250,0.003906
20723623000,0.999756,-0.017639,0.014526,0.001587,-0.015625,0.007812,0.003906
20743797000,0.999756,-0.017639,0.014526,0.001526,0.019531,0.007812,0.003906
20762966000,0.999756,-0.017639,0.014526,0.001526,0.019531,0.007812,0.003906
20783381000,0.999756,-0.017700,0.014526,0.001526,0.019531,0.007812,0.003906
20809608000,0.999756,-0.017700,0.014526,0.001587,0.019531,0.007812,0.003906
20823417000,0.999756,-0.017700,0.014526,0.001587,-0.015625,0.007812,0.003906
20843855000,0.999756,-0.017639,0.014526,0.001587,-0.015625,-0.031250,0.003906
20872529000,0.999756,-0.017639,0.014526,0.001526,0.019531,-0.031250,0.003906
20890386000,0.999756,-0.017639,0.014526,0.001526,-0.015625,0.007812,-0.035156
20902578000,0.999756,-0.017639,0.014526,0.001526,-0.015625,-0.031250,0.003906
20928333000,0.999756,-0.017639,0.014526,0.001526,-0.015625,0.007812,0.003906
20942375000,0.999756,-0.017639,0.014526,0.001526,0.019531,0.007812,0.003906
20963030000,0.999756,-0.017639,0.014526,0.001526,-0.015625,0.007812,-0.035156
20989856000,0.999756,-0.017639,0.014465,0.001526,-0.015625,0.007812,0.003906
21003078000,0.999756,-0.017639,0.014465,0.001526,-0.054688,0.007812,-0.035156
21022275000,0.999756,-0.017639,0.014465,0.001526,0.019531,0.007812,0.003906
21044011000,0.999756,-0.017700,0.014465,0.001526,-0.015625,0.007812,-0.035156
21062334000,0.999756,-0.017700,0.014404,0.001526,0.019531,0.007812,0.003906
21082301000,0.999756,-0.017700,0.014404,0.001526,-0.015625,0.007812,0.003906
21106230000,0.999756,-0.017700,0.014404,0.001526,0.019531,-0.031250,0.003906
21122028000,0.999756,-0.017639,0.014404,0.001526,-0.015625,0.007812,0.003906
21142695000,0.999756,-0.017639,0.014404,0.001526,0.019531,0.007812,0.003906
21162704000,0.999756,-0.017700,0.014404,0.001526,0.019531,0.007812,0.003906
21185632000,0.999756,-0.017700,0.014404,0.001526,0.019531,0.007812,0.003906
21201802000,0.999756,-0.017700,0.014404,0.001526,-0.015625,0.007812,0.042969
21222026000,0.999756,-0.017700,0.014404,0.001526,-0.015625,0.007812,0.003906
21242406000,0.999756,-0.017700,0.014343,0.001526,0.019531,-0.031250,0.003906
21261781000,0.999756,-0.017700,0.014404,0.001526,-0.015625,0.007812,0.003906
21281404000,0.999756,-0.017700,0.014343,0.001526,0.019531,0.007812,-0.035156
21304389000,0.999756,-0.017700,0.014343,0.001526,-0.015625,0.007812,-0.035156
21321932000,0.999756,-0.017639,0.014404,0.001526,-0.015625,0.007812,0.003906
21341648000,0.999756,-0.017639,0.014404,0.001526,0.019531,0.007812,-0.035156
21363915000,0.999756,-0.017639,0.014404,0.001526,0.019531,0.007812,-0.035156
21386088000,0.999756,-0.017578,0.014404,0.001526,-0.015625,0.007812,0.003906
21401146000,0.999756,-0.017639,0.014404,0.001526,-0.015625,0.000000,0.003906
21421117000,0.999756,-0.017639,0.014404,0.001526,0.019531,-0.031250,0.003906
21446848000,0.999756,-0.017639,0.014404,0.001526,-0.015625,0.007812,0.003906
21461437000,0.999756,-0.017639,0.014343,0.001526,-0.015625,0.007812,0.003906
21480806000,0.999756,-0.017639,0.014343,0.001526,0.019531,0.007812,-0.035156
21501398000,0.999756,-0.017578,0.014404,0.001526,-0.015625,0.007812,0.003906
21521787000,0.999756,-0.017578,0.014404,0.001526,-0.015625,0.007812,0.003906
21540822000,0.999756,-0.017639,0.014404,0.001526,0.019531,-0.031250,0.003906
21561218000,0.999756,-0.017578,0.014404,0.001526,0.019531,0.007812,0.003906
21591149000,0.999756,-0.017578,0.014404,0.001526,0.019531,0.000000,0.003906
21606707000,0.999756,-0.017578,0.014404,0.001526,0.019531,0.000000,0.003906
21620663000,0.999756,-0.017578,0.014404,0.001526,0.019531,0.000000,-0.035156
21641050000,0.999756,-0.017578,0.014404,0.001526,0.011719,0.007812,-0.035156
21663476000,0.999756,-0.017578,0.014404,0.001526,0.011719,0.007812,-0.035156
21680914000,0.999756,-0.017578,0.014404,0.001526,0.011719,0.007812,0.003906
21700190000,0.999756,-0.017578,0.014404,0.001526,-0.023438,0.000000,0.003906
21720542000,0.999756,-0.017578,0.014404,0.001526,-0.023438,0.007812,0.003906
21740020000,0.999756,-0.017578,0.014404,0.001526,-0.023438,0.007812,0.003906
21760686000,0.999756,-0.017578,0.014404,0.001526,0.011719,0.007812,0.003906
21785324000,0.999756,-0.017578,0.014404,0.001526,0.011719,0.000000,0.003906
21800400000,0.999756,-0.017578,0.014404,0.001526,0.011719,0.000000,0.003906
21820186000,0.999756,-0.017578,0.014404,0.001526,-0.023438,0.000000,0.003906
21849657000,0.999756,-0.017578,0.014404,0.001526,0.011719,0.000000,0.042969
21866453000,0.999756,-0.017578,0.014404,0.001526,0.011719,0.000000,0.003906
21880171000,0.999756,-0.017578,0.014404,0.001526,-0.023438,0.000000,0.042969
21900080000,0.999756,-0.017578,0.014404,0.001526,-0.023438,-0.039062,0.003906
21929750000,0.999756,-0.017578,0.014404,0.001526,-0.023438,0.000000,0.003906
21939829000,0.999756,-0.017578,0.014404,0.001526,0.011719,0.000000,-0.035156
21959557000,0.999756,-0.017578,0.014404,0.001526,-0.023438,0.000000,0.003906
21989266000,0.999756,-0.017578,0.014404,0.001526,-0.023438,0.007812,0.003906
21999860000,0.999756,-0.017578,0.014404,0.001526,-0.023438,0.007812,0.003906
22019903000,0.999756,-0.017578,0.014404,0.001526,-0.023438,0.007812,-0.035156
22040969000,0.999756,-0.017578,0.014404,0.001526,0.019531,0.007812,0.003906
22063766000,0.999756,-0.017578,0.014404,0.001526,-0.015625,0.007812,0.003906
22080330000,0.999756,-0.017578,0.014404,0.001526,0.019531,0.007812,0.003906
22100340000,0.999756,-0.017578,0.014404,0.001526,0.019531,0.007812,0.003906
22119691000,0.999756,-0.017578,0.014404,0.001526,0.019531,-0.031250,0.003906
22144438000,0.999756,-0.017578,0.014404,0.001526,0.019531,0.007812,0.003906
22159966000,0.999756,-0.017578,0.014404,0.001526,0.011719,0.007812,0.003906
22181244000,0.999756,-0.017578,0.014404,0.001526,-0.023438,0.007812,-0.035156
22199919000,0.999756,-0.017578,0.014404,0.001526,0.011719,0.007812,0.003906
22229495000,0.999756,-0.017578,0.014404,0.001526,0.011719,0.007812,0.003906
22238993000,0.999756,-0.017578,0.014404,0.001526,0.011719,0.007812,-0.035156
22259083000,0.999756,-0.017578,0.014404,0.001526,-0.023438,0.007812,-0.035156
22279609000,0.999756,-0.017578,0.014404,0.001526,-0.023438,0.000000,0.003906
22308769000,0.999756,-0.017578,0.014404,0.001465,0.011719,-0.007812,0.003906
22318929000,0.999756,-0.017578,0.014404,0.001465,-0.023438,-0.046875,0.003906
22338338000,0.999756,-0.017578,0.014404,0.001465,0.011719,-0.007812,0.003906
22359139000,0.999756,-0.017578,0.014404,0.001465,0.011719,0.000000,0.003906
22388792000,0.999756,-0.017578,0.014404,0.001465,-0.023438,-0.039062,0.042969
22398139000,0.999756,-0.017578,0.014404,0.001465,0.011719,0.000000,0.003906
22418154000,0.999756,-0.017578,0.014404,0.001465,-0.023438,0.000000,0.042969
22439152000,0.999756,-0.017578,0.014404,0.001465,0.011719,0.000000,0.003906
22458292000,0.999756,-0.017578,0.014404,0.001465,-0.023438,0.000000,0.003906
22478105000,0.999756,-0.017517,0.014404,0.001465,0.011719,-0.039062,0.003906
22498785000,0.999756,-0.017578,0.014404,0.001465,-0.023438,0.000000,-0.035156
22524891000,0.999756,-0.017517,0.014404,0.001465,-0.015625,-0.039062,0.003906
22538362000,0.999756,-0.017578,0.014404,0.001465,-0.015625,0.000000,0.003906
22557883000,0.999756,-0.017578,0.014465,0.001465,-0.015625,-0.039062,0.003906
22578630000,0.999756,-0.017517,0.014465,0.001465,0.019531,0.007812,0.003906
22608233000,0.999756,-0.017517,0.014465,0.001465,0.019531,0.007812,0.003906
22618640000,0.999756,-0.017517,0.014465,0.001465,0.011719,0.007812,0.003906
22638272000,0.999756,-0.017517,0.014465,0.001465,-0.023438,0.007812,-0.003906
22667979000,0.999756,-0.017456,0.014465,0.001465,-0.023438,0.007812,-0.003906
22683411000,0.999756,-0.017456,0.014465,0.001465,0.011719,0.007812,0.035156
22697746000,0.999756,-0.017456,0.014465,0.001465,-0.015625,0.007812,-0.003906
22718200000,0.999756,-0.017456,0.014465,0.001526,0.019531,0.007812,-0.003906
22747422000,0.999756,-0.017456,0.014465,0.001526,0.011719,0.007812,-0.003906
22761823000,0.999756,-0.017456,0.014465,0.001465,0.011719,0.007812,-0.003906
22777766000,0.999756,-0.017456,0.014465,0.001465,0.011719,0.007812,-0.003906
22799227000,0.999756,-0.017456,0.014465,0.001465,-0.023438,0.007812,-0.003906
22827053000,0.999756,-0.017517,0.014404,0.001526,-0.023438,0.007812,-0.003906
22837970000,0.999756,-0.017456,0.014404,0.001526,0.011719,0.007812,-0.042969
22857734000,0.999756,-0.017456,0.014404,0.001526,-0.023438,0.007812,-0.003906
22878558000,0.999756,-0.017456,0.014404,0.001465,-0.023438,0.007812,-0.003906
22905882000,0.999756,-0.017456,0.014404,0.001465,-0.023438,0.007812,0.035156
22917963000,0.999756,-0.017517,0.014404,0.001465,-0.023438,0.007812,-0.003906
22937511000,0.999756,-0.017456,0.014465,0.001465,-0.023438,0.007812,-0.003906
22957010000,0.999756,-0.017456,0.014465,0.001465,0.011719,0.007812,0.035156
22977597000,0.999756,-0.017456,0.014465,0.001465,-0.023438,0.007812,0.035156
22997827000,0.999756,-0.017456,0.014465,0.001465,0.011719,-0.031250,0.035156
23023344000,0.999756,-0.017456,0.014465,0.001526,-0.015625,0.007812,-0.003906
23037239000,0.999756,-0.017456,0.014465,0.001526,-0.015625,0.007812,-0.003906
23057430000,0.999756,-0.017395,0.014465,0.001465,-0.015625,0.007812,-0.003906
23086413000,0.999756,-0.017456,0.014465,0.001465,0.019531,0.007812,-0.003906
23097300000,0.999756,-0.017456,0.014465,0.001465,-0.015625,0.007812,-0.003906
23117266000,0.999756,-0.017395,0.014465,0.001465,-0.015625,0.007812,-0.003906
23146067000,0.999756,-0.017395,0.014465,0.001465,-0.015625,-0.031250,-0.003906
23156487000,0.999756,-0.017395,0.014526,0.001465,0.019531,0.007812,-0.003906
23178241000,0.999756,-0.017395,0.014526,0.001526,0.019531,0.007812,-0.042969
23197043000,0.999756,-0.017395,0.014526,0.001465,-0.015625,0.007812,-0.003906
23217079000,0.999756,-0.017395,0.014526,0.001465,0.019531,0.007812,-0.003906
23237722000,0.999756,-0.017395,0.014526,0.001465,-0.015625,0.007812,0.003906
23256867000,0.999756,-0.017395,0.014526,0.001465,0.019531,0.007812,0.003906
23277038000,0.999756,-0.017395,0.014526,0.001465,0.019531,0.007812,0.003906
23297426000,0.999756,-0.017395,0.014465,0.001465,0.019531,0.007812,0.003906
23316892000,0.999756,-0.017456,0.014465,0.001465,-0.015625,0.007812,0.003906
23337040000,0.999756,-0.017456,0.014465,0.001465,-0.015625,0.007812,0.003906
23356801000,0.999756,-0.017456,0.014465,0.001465,0.019531,0.007812,-0.035156
23385769000,0.999756,-0.017456,0.014465,0.001465,-0.015625,0.007812,0.003906
23398280000,0.999756,-0.017456,0.014465,0.001465,-0.015625,0.007812,0.003906
23416685000,0.999756,-0.017456,0.014465,0.001465,-0.015625,0.007812,0.042969
23437060000,0.999756,-0.017456,0.014465,0.001465,0.019531,0.007812,-0.035156
23463295000,0.999756,-0.017456,0.014465,0.001465,0.019531,0.000000,0.003906
23476725000,0.999756,-0.017456,0.014465,0.001465,0.058594,0.000000,0.042969
23496691000,0.999756,-0.017456,0.014465,0.001465,-0.015625,0.039062,-0.074219
23525888000,0.999756,-0.017456,0.014465,0.001465,-0.015625,0.000000,0.003906
23535226000,0.999756,-0.017456,0.014526,0.001465,0.019531,-0.039062,0.003906
23556434000,0.999756,-0.017456,0.014526,0.001465,0.019531,0.000000,0.042969
23576666000,0.999756,-0.017456,0.014587,0.001465,0.058594,0.000000,0.003906
23596095000,0.999756,-0.017456,0.014587,0.001526,0.019531,0.000000,0.042969
23624907000,0.999756,-0.017517,0.014648,0.001587,0.011719,0.000000,0.003906
23645309000,0.999756,-0.017517,0.014648,0.001648,0.167969,0.000000,0.003906
23660308000,0.999756,-0.017578,0.014709,0.001770,0.769531,0.039062,0.003906
23676529000,0.999756,-0.017578,0.014709,0.001892,0.992188,0.007812,0.042969
23704649000,0.999756,-0.017700,0.014771,0.001892,1.699219,-0.039062,0.156250
23717376000,0.999756,-0.017517,0.014648,0.001892,1.707031,-0.070312,-0.042969
23736851000,0.999756,-0.017822,0.014771,0.001831,1.507812,-0.144531,-0.082031
23756491000,0.999756,-0.017700,0.014771,0.001770,1.277344,0.046875,0.035156
23784597000,0.999756,-0.017700,0.014832,0.001709,0.425781,-0.031250,0.078125
23795377000,0.999756,-0.017883,0.014954,0.001709,0.347656,0.121094,0.347656
23824472000,0.999756,-0.017883,0.015015,0.001709,-0.308594,0.007812,-0.035156
23844425000,0.999756,-0.017761,0.015076,0.001648,-0.433594,-0.031250,-0.035156
23855271000,0.999756,-0.017700,0.015076,0.001648,-0.472656,-0.031250,0.156250
23884716000,0.999756,-0.017700,0.015198,0.001587,-0.664062,-0.117188,0.156250
23903821000,0.999756,-0.017578,0.015198,0.001587,-0.472656,-0.191406,-0.152344
23924758000,0.999756,-0.017700,0.015137,0.001587,-0.746094,0.113281,0.042969
23948306000,0.999756,-0.017456,0.015198,0.001587,-0.863281,0.074219,-0.113281
23955155000,0.999756,-0.017578,0.015320,0.001587,-0.707031,-0.191406,-0.187500
23984466000,0.999756,-0.017456,0.015320,0.001648,-0.714844,0.113281,-0.035156
23995282000,0.999756,-0.017334,0.015259,0.001648,-0.714844,-0.078125,0.117188
24026739000,0.999756,-0.017334,0.015320,0.001648,-0.371094,0.031250,0.003906
24044282000,0.999756,-0.017395,0.015442,0.001648,-0.179688,-0.007812,0.156250
24064171000,0.999756,-0.017334,0.015442,0.001648,-0.101562,-0.046875,0.003906
24083526000,0.999756,-0.017334,0.015503,0.001648,-0.058594,-0.007812,-0.035156
24103500000,0.999756,-0.017273,0.015503,0.001648,-0.132812,-0.160156,-0.074219
24123800000,0.999756,-0.017212,0.015503,0.001648,-0.410156,0.031250,-0.035156
24148424000,0.999756,-0.017334,0.015503,0.001648,-0.257812,-0.085938,-0.074219
24163676000,0.999756,-0.017212,0.015442,0.001587,-0.601562,-0.007812,0.003906
24183620000,0.999756,-0.017212,0.015503,0.001648,-0.027344,0.144531,0.117188
24209334000,0.999756,-0.017334,0.015564,0.001648,0.050781,0.066406,0.078125
24224059000,0.999756,-0.017273,0.015503,0.001587,0.050781,-0.238281,-0.113281
24243232000,0.999756,-0.017212,0.015503,0.001709,-0.101562,-0.046875,-0.035156
24269238000,0.999756,-0.017212,0.015503,0.001709,-0.101562,0.183594,0.003906
24282931000,0.999756,-0.017212,0.015503,0.001648,-0.140625,-0.007812,-0.035156
24303039000,0.999756,-0.017090,0.015503,0.001648,-0.066406,0.066406,0.003906
24324629000,0.999756,-0.017090,0.015503,0.001587,-0.257812,0.031250,-0.035156
24347582000,0.999756,-0.017090,0.015564,0.001587,-0.562500,-0.046875,-0.035156
24363251000,0.999756,-0.017151,0.015564,0.001587,-1.062500,0.031250,0.003906
24383983000,0.999756,-0.017090,0.015503,0.001587,-0.058594,0.000000,0.003906
24402606000,0.999756,-0.017090,0.015503,0.001587,-0.093750,-0.039062,0.003906
24423089000,0.999756,-0.017090,0.015503,0.001587,-0.093750,0.000000,0.003906
24453197000,0.999756,-0.017090,0.015503,0.001587,-0.093750,0.000000,0.003906
24468299000,0.999756,-0.017090,0.015503,0.001587,-0.132812,0.000000,0.003906
24483276000,0.999756,-0.017090,0.015503,0.001587,-0.093750,0.000000,0.003906
24502985000,0.999756,-0.017090,0.015503,0.001587,-0.093750,0.000000,0.042969
24523306000,0.999756,-0.017090,0.015503,0.001587,-0.093750,0.000000,0.003906
24542190000,0.999756,-0.017090,0.015503,0.001587,-0.093750,0.000000,0.003906
24562810000,0.999756,-0.017090,0.015503,0.001587,-0.125000,-0.039062,0.003906
24582162000,0.999756,-0.017090,0.015503,0.001587,-0.085938,-0.039062,0.042969
24607732000,0.999756,-0.017090,0.015503,0.001587,-0.050781,0.000000,0.003906
24622366000,0.999756,-0.017090,0.015503,0.001587,-0.050781,0.000000,0.042969
24642547000,0.999756,-0.017090,0.015503,0.001587,-0.085938,0.000000,0.003906
24662431000,0.999756,-0.017090,0.015503,0.001587,-0.125000,0.000000,0.003906
24686461000,0.999756,-0.017151,0.015503,0.001587,-0.085938,0.000000,0.042969
24702009000,0.999756,-0.017090,0.015503,0.001587,-0.085938,0.000000,0.003906
24721951000,0.999756,-0.017151,0.015503,0.001587,0.000000,0.000000,-0.003906
24741832000,0.999756,-0.017090,0.015503,0.001587,0.000000,0.000000,-0.003906
24762407000,0.999756,-0.017090,0.015503,0.001587,0.000000,0.000000,-0.003906
24782279000,0.999756,-0.017090,0.015503,0.001587,0.000000,0.000000,0.035156
24801526000,0.999756,-0.017090,0.015503,0.001587,-0.039062,0.039062,-0.003906
24822893000,0.999756,-0.017090,0.015503,0.001587,0.000000,0.000000,-0.003906
24848546000,0.999756,-0.017090,0.015503,0.001587,0.000000,0.000000,-0.003906
24861766000,0.999756,-0.017090,0.015503,0.001587,0.000000,0.000000,0.035156
24881545000,0.999756,-0.017090,0.015503,0.001587,-0.039062,0.000000,-0.003906
24902101000,0.999756,-0.017090,0.015503,0.001587,0.000000,0.000000,-0.003906
24924443000,0.999756,-0.017151,0.015503,0.001587,0.000000,0.000000,-0.003906
24941940000,0.999756,-0.017151,0.015503,0.001648,0.000000,0.000000,-0.003906
24962288000,0.999756,-0.017151,0.015503,0.001648,0.000000,0.000000,0.003906
24982540000,0.999756,-0.017151,0.015503,0.001587,0.000000,0.000000,0.003906
25007974000,0.999756,-0.017090,0.015442,0.001587,-0.039062,0.000000,0.003906
25021272000,0.999756,-0.017090,0.015442,0.001587,0.000000,0.000000,0.003906
25051760000,0.999756,-0.017090,0.015442,0.001587,0.000000,0.000000,0.003906
25068132000,0.999756,-0.017151,0.015442,0.001587,-0.039062,0.000000,0.003906
25081257000,0.999756,-0.017090,0.015442,0.001587,0.007812,0.000000,0.003906
25101148000,0.999756,-0.017090,0.015442,0.001587,0.007812,0.000000,0.042969
25122490000,0.999756,-0.017151,0.015381,0.001587,0.007812,0.000000,0.003906
25147597000,0.999756,-0.017151,0.015381,0.001587,0.007812,0.039062,0.003906
25161036000,0.999756,-0.017151,0.015381,0.001587,0.007812,0.000000,0.003906
25180637000,0.999756,-0.017151,0.015381,0.001587,0.007812,0.000000,0.003906
25201241000,0.999756,-0.017090,0.015381,0.001587,0.007812,0.000000,0.042969
25225551000,0.999756,-0.017151,0.015381,0.001587,0.042969,0.000000,0.003906
25240692000,0.999756,-0.017151,0.015381,0.001587,0.000000,0.000000,0.003906
25260882000,0.999756,-0.017151,0.015381,0.001587,-0.007812,0.000000,0.003906
25280999000,0.999756,-0.017151,0.015381,0.001587,-0.007812,0.000000,0.003906
25307615000,0.999756,-0.017151,0.015381,0.001587,-0.007812,0.000000,0.003906
25320160000,0.999756,-0.017151,0.015381,0.001587,0.000000,0.000000,0.003906
25340460000,0.999756,-0.017151,0.015381,0.001587,0.000000,0.000000,0.042969
25370224000,0.999756,-0.017151,0.015381,0.001587,0.035156,0.000000,0.042969
25380721000,0.999756,-0.017151,0.015381,0.001587,0.000000,-0.039062,0.003906
25400231000,0.999756,-0.017151,0.015381,0.001587,0.000000,0.000000,0.003906
25430422000,0.999756,-0.017151,0.015381,0.001587,-0.007812,0.000000,0.003906
25446895000,0.999756,-0.017151,0.015381,0.001587,-0.046875,0.000000,0.003906
25460515000,0.999756,-0.017151,0.015381,0.001587,-0.007812,0.000000,0.003906
25480591000,0.999756,-0.017151,0.015381,0.001526,0.000000,0.000000,0.003906
25505215000,0.999756,-0.017151,0.015381,0.001526,0.000000,0.000000,0.003906
25519831000,0.999756,-0.017151,0.015381,0.001526,0.000000,0.000000,0.003906
25549844000,0.999756,-0.017151,0.015381,0.001526,0.000000,0.000000,0.003906
25567097000,0.999756,-0.017151,0.015381,0.001526,0.000000,0.000000,0.042969
25579759000,0.999756,-0.017212,0.015381,0.001526,0.000000,0.000000,0.003906
25599975000,0.999756,-0.017212,0.015381,0.001526,0.000000,0.000000,0.003906
25619980000,0.999756,-0.017212,0.015381,0.001526,0.000000,0.000000,0.003906
25643968000,0.999756,-0.017212,0.015381,0.001526,0.000000,0.000000,0.003906
25659153000,0.999756,-0.017273,0.015381,0.001526,0.000000,0.000000,0.003906
25679048000,0.999756,-0.017273,0.015381,0.001526,0.000000,0.000000,0.003906
25709728000,0.999756,-0.017212,0.015381,0.001526,0.000000,0.000000,0.003906
25719330000,0.999756,-0.017212,0.015381,0.001526,-0.039062,0.039062,0.003906
25739477000,0.999756,-0.017273,0.015381,0.001526,0.000000,-0.039062,0.003906
25759133000,0.999756,-0.017273,0.015381,0.001526,0.000000,0.000000,0.003906
25789263000,0.999756,-0.017212,0.015320,0.001526,0.000000,0.000000,0.003906
25799636000,0.999756,-0.017212,0.015320,0.001526,0.000000,-0.039062,0.042969
25818991000,0.999756,-0.017212,0.015320,0.001526,0.000000,0.000000,0.003906
25839144000,0.999756,-0.017212,0.015320,0.001465,0.000000,0.000000,0.003906
25868789000,0.999756,-0.017212,0.015320,0.001465,0.000000,0.000000,0.003906
25886027000,0.999756,-0.017212,0.015320,0.001526,-0.039062,0.000000,0.042969
25898702000,0.999756,-0.017212,0.015320,0.001465,0.000000,0.000000,0.003906
25918322000,0.999756,-0.017212,0.015320,0.001526,0.000000,0.000000,0.003906
25939485000,0.999756,-0.017212,0.015320,0.001465,0.000000,0.000000,0.003906
25971165000,0.999756,-0.017151,0.015320,0.001465,0.000000,0.000000,-0.042969
25979295000,0.999756,-0.017151,0.015320,0.001526,0.000000,0.000000,-0.003906
25998488000,0.999756,-0.017151,0.015320,0.001465,0.000000,0.000000,-0.003906
26019131000,0.999756,-0.017151,0.015320,0.001465,0.000000,0.000000,0.035156
26048743000,0.999756,-0.017151,0.015320,0.001465,0.000000,0.000000,-0.003906
26058533000,0.999756,-0.017151,0.015320,0.001465,0.000000,0.000000,-0.003906
26080087000,0.999756,-0.017212,0.015320,0.001526,0.000000,0.000000,0.003906
26098206000,0.999756,-0.017212,0.015320,0.001526,0.000000,0.000000,0.003906
26118352000,0.999756,-0.017212,0.015320,0.001526,-0.039062,0.000000,0.003906
26138499000,0.999756,-0.017212,0.015320,0.001526,0.000000,0.000000,0.042969
26157984000,0.999756,-0.017212,0.015320,0.001526,0.000000,-0.039062,-0.003906
26180584000,0.999756,-0.017212,0.015320,0.001526,0.000000,0.000000,-0.003906
26199591000,0.999756,-0.017212,0.015320,0.001526,0.035156,0.039062,-0.003906
26224684000,0.999756,-0.017212,0.015320,0.001526,0.000000,0.000000,-0.003906
26238003000,0.999756,-0.017212,0.015320,0.001526,0.000000,0.000000,0.003906
26257860000,0.999756,-0.017212,0.015320,0.001526,0.000000,0.000000,0.003906
26288081000,0.999756,-0.017212,0.015320,0.001526,0.000000,0.000000,0.003906
26298277000,0.999756,-0.017212,0.015320,0.001526,0.000000,-0.039062,0.003906
26318345000,0.999756,-0.017273,0.015320,0.001526,0.000000,0.000000,0.003906
26338013000,0.999756,-0.017273,0.015320,0.001526,0.000000,-0.039062,0.042969
26368128000,0.999756,-0.017273,0.015320,0.001526,0.000000,0.000000,0.003906
26385797000,0.999756,-0.017273,0.015320,0.001526,0.000000,0.000000,0.003906
26397955000,0.999756,-0.017273,0.015320,0.001526,0.000000,-0.039062,0.003906
26417800000,0.999756,-0.017334,0.015320,0.001526,0.000000,0.000000,0.003906
26447714000,0.999756,-0.017334,0.015320,0.001526,0.000000,0.000000,0.003906
26457429000,0.999756,-0.017334,0.015320,0.001526,0.000000,0.000000,-0.035156
26477749000,0.999756,-0.017334,0.015320,0.001526,0.000000,0.000000,0.003906
26497547000,0.999756,-0.017334,0.015320,0.001526,0.000000,0.000000,0.003906
26527469000,0.999756,-0.017334,0.015259,0.001526,0.000000,0.000000,0.003906
26537280000,0.999756,-0.017334,0.015320,0.001526,0.000000,0.000000,0.003906
26557230000,0.999756,-0.017334,0.015320,0.001587,0.000000,0.000000,0.003906
26577986000,0.999756,-0.017395,0.015320,0.001526,0.000000,0.000000,0.003906
26607206000,0.999756,-0.017334,0.015381,0.001526,0.000000,0.000000,0.003906
26617692000,0.999756,-0.017334,0.015320,0.001526,0.000000,0.000000,0.003906
26637582000,0.999756,-0.017334,0.015381,0.001587,0.000000,0.000000,0.003906
26657505000,0.999756,-0.017334,0.015381,0.001526,0.000000,0.000000,0.003906
26688743000,0.999756,-0.017334,0.015320,0.001526,0.000000,0.000000,-0.035156
26697017000,0.999756,-0.017334,0.015320,0.001526,0.000000,0.000000,0.042969
26717320000,0.999756,-0.017334,0.015320,0.001526,0.000000,0.000000,0.003906
26737364000,0.999756,-0.017334,0.015320,0.001526,0.000000,0.000000,0.003906
26757182000,0.999756,-0.017334,0.015320,0.001526,0.000000,0.000000,0.003906
26785065000,0.999756,-0.017334,0.015320,0.001526,0.000000,0.000000,0.003906
26797098000,0.999756,-0.017334,0.015320,0.001526,0.035156,0.000000,0.003906
26817200000,0.999756,-0.017334,0.015320,0.001526,0.000000,0.000000,0.042969
26836920000,0.999756,-0.017334,0.015320,0.001526,0.000000,0.000000,0.003906
26866354000,0.999756,-0.017334,0.015320,0.001526,0.000000,0.000000,0.003906
26886608000,0.999756,-0.017334,0.015320,0.001526,0.000000,0.000000,-0.035156
26896510000,0.999756,-0.017334,0.015320,0.001526,-0.039062,0.000000,0.003906
26916997000,0.999756,-0.017334,0.015320,0.001526,0.000000,0.000000,0.042969
26945861000,0.999756,-0.017334,0.015320,0.001526,0.000000,0.000000,0.003906
26967490000,0.999756,-0.017334,0.015320,0.001526,0.000000,0.000000,0.003906
26975957000,0.999756,-0.017334,0.015320,0.001526,0.000000,0.000000,0.003906
27012494000,0.999756,-0.017334,0.015320,0.001526,0.000000,0.000000,0.003906
27025848000,0.999756,-0.017334,0.015320,0.001526,0.000000,0.000000,0.003906
27045687000,0.999756,-0.017334,0.015320,0.001526,0.000000,0.039062,0.003906
27055532000,0.999756,-0.017334,0.015320,0.001526,0.000000,0.000000,0.042969
27076592000,0.999756,-0.017334,0.015320,0.001526,0.000000,-0.039062,0.042969
27099311000,0.999756,-0.017334,0.015320,0.001526,0.000000,0.000000,0.003906
27125347000,0.999756,-0.017334,0.015320,0.001526,0.000000,0.000000,0.003906
27135253000,0.999756,-0.017334,0.015320,0.001526,0.000000,0.000000,0.042969
27156490000,0.999756,-0.017334,0.015320,0.001526,0.000000,0.000000,0.003906
27186028000,0.999756,-0.017334,0.015320,0.001526,-0.039062,0.000000,0.003906
27195350000,0.999756,-0.017334,0.015320,0.001526,0.000000,0.000000,0.003906
27216711000,0.999756,-0.017334,0.015320,0.001526,-0.039062,0.000000,0.003906
27245661000,0.999756,-0.017334,0.015381,0.001526,-0.039062,0.039062,0.003906
27255282000,0.999756,-0.017334,0.015381,0.001526,0.035156,0.000000,0.042969
27284983000,0.999756,-0.017273,0.015381,0.001526,-0.039062,0.039062,0.042969
27295266000,0.999756,-0.017273,0.015381,0.001526,0.000000,-0.039062,0.003906
27316716000,0.999756,-0.017273,0.015442,0.001526,0.035156,0.000000,0.003906
27337399000,0.999756,-0.017273,0.015442,0.001526,0.035156,0.000000,0.003906
27365115000,0.999756,-0.017273,0.015381,0.001526,0.000000,0.000000,0.003906
27375299000,0.999756,-0.017334,0.015381,0.001526,0.000000,0.000000,0.042969
27411753000,0.999756,-0.017334,0.015442,0.001526,-0.031250,0.000000,-0.035156
27424848000,0.999756,-0.017334,0.015503,0.001526,0.042969,0.000000,0.003906
27445145000,0.999756,-0.017395,0.015503,0.001526,0.007812,0.000000,0.003906
27455343000,0.999756,-0.017395,0.015503,0.001526,0.042969,0.000000,-0.035156
27484867000,0.999756,-0.017517,0.015503,0.001709,1.253906,-0.031250,0.035156
27507713000,0.999695,-0.017517,0.015503,0.001709,1.691406,0.007812,0.003906
27515384000,0.999695,-0.017578,0.015442,0.001709,1.691406,-0.070312,0.156250
27549664000,0.999695,-0.017517,0.015625,0.001648,1.531250,-0.070312,0.117188
27555194000,0.999695,-0.017517,0.015686,0.001648,1.375000,0.007812,0.078125
27584659000,0.999695,-0.017578,0.015747,0.001587,0.402344,-0.031250,-0.074219
27604129000,0.999695,-0.017578,0.015808,0.001526,0.027344,-0.070312,-0.113281
27629340000,0.999695,-0.017578,0.015930,0.001526,-0.171875,-0.109375,-0.113281
27644532000,0.999695,-0.017517,0.015869,0.001526,-0.410156,0.160156,-0.113281
27664219000,0.999695,-0.017395,0.015930,0.001404,-0.675781,0.390625,0.078125
27683817000,0.999695,-0.017456,0.016052,0.001343,-0.648438,0.152344,0.347656
27704311000,0.999695,-0.017456,0.016113,0.001038,-0.562500,0.230469,0.156250
27727719000,0.999695,-0.017456,0.016052,0.000549,-0.953125,0.152344,-0.113281
27750213000,0.999695,-0.017639,0.016052,0.000061,-0.800781,-0.070312,0.156250
27764307000,0.999695,-0.017639,0.015991,-0.000427,-0.683594,0.007812,-0.074219
27784867000,0.999695,-0.017517,0.015930,-0.000854,-0.578125,-0.144531,0.003906
27803581000,0.999695,-0.017517,0.015930,-0.000977,-0.500000,-0.078125,-0.152344
27827305000,0.999695,-0.017456,0.015930,-0.000854,-0.386719,-0.070312,-0.074219
27843589000,0.999695,-0.017395,0.015869,-0.000366,-0.386719,-0.230469,-0.003906
27863999000,0.999695,-0.017395,0.015808,0.000488,-0.242188,-0.117188,0.109375
27883658000,0.999695,-0.017456,0.015808,0.001099,-0.203125,-0.039062,0.035156
27909738000,0.999695,-0.017456,0.015808,0.000977,-0.394531,-0.230469,-0.003906
27923468000,0.999695,-0.017334,0.015869,0.001099,-0.242188,-0.078125,-0.003906
27943021000,0.999695,-0.017395,0.015869,0.001099,-0.277344,-0.078125,-0.003906
27965500000,0.999695,-0.017334,0.015808,0.001099,-0.433594,0.000000,0.070312
27988476000,0.999695,-0.017395,0.015808,0.001160,-0.277344,-0.039062,-0.042969
28003194000,0.999695,-0.017334,0.015808,0.001099,-0.433594,0.039062,-0.082031
28032796000,0.999695,-0.017334,0.015869,0.001038,-0.699219,0.039062,0.035156
28049917000,0.999695,-0.017334,0.015869,0.001099,-0.316406,0.000000,-0.042969
28062747000,0.999695,-0.017334,0.015869,0.001099,-0.085938,0.000000,0.035156
28083442000,0.999695,-0.017334,0.015869,0.001099,-0.125000,0.000000,-0.003906
28105474000,0.999695,-0.017334,0.015808,0.001099,-0.125000,0.000000,-0.042969
28122578000,0.999695,-0.017395,0.015808,0.001099,-0.125000,0.000000,-0.003906
28142578000,0.999695,-0.017395,0.015686,0.001099,-0.085938,0.039062,-0.003906
28163115000,0.999695,-0.017334,0.015808,0.001099,0.027344,-0.078125,0.109375
28189570000,0.999756,-0.017334,0.015686,0.001038,-0.203125,-0.039062,-0.121094
28202824000,0.999756,-0.017273,0.015686,0.001038,-0.203125,-0.078125,-0.082031
28223897000,0.999756,-0.017395,0.015625,0.001038,-0.195312,-0.046875,-0.121094
28252720000,0.999756,-0.017273,0.015686,0.000977,-0.078125,-0.152344,-0.003906
28269189000,0.999756,-0.017273,0.015686,0.000977,-0.117188,0.074219,0.035156
28282855000,0.999756,-0.017273,0.015686,0.000977,-0.078125,0.039062,0.035156
28302402000,0.999756,-0.017273,0.015686,0.000977,-0.117188,0.000000,-0.003906
28322357000,0.999756,-0.017273,0.015686,0.000977,-0.117188,-0.007812,-0.042969
28346296000,0.999756,-0.017273,0.015686,0.000977,-0.117188,0.000000,-0.042969
28362398000,0.999756,-0.017273,0.015686,0.000977,-0.078125,-0.039062,-0.003906
28382530000,0.999756,-0.017273,0.015686,0.001038,-0.117188,0.000000,-0.003906
28401954000,0.999756,-0.017273,0.015686,0.001038,0.023438,0.023438,-0.035156
28427713000,0.999756,-0.017273,0.015686,0.001038,-0.015625,-0.015625,0.003906
28442259000,0.999756,-0.017212,0.015686,0.001038,-0.015625,-0.015625,0.003906
28464406000,0.999756,-0.017212,0.015686,0.001038,-0.015625,0.015625,0.003906
28488067000,0.999756,-0.017212,0.015686,0.001038,0.023438,-0.023438,0.003906
28501984000,0.999756,-0.017273,0.015747,0.000977,-0.015625,-0.023438,0.003906
28521990000,0.999756,-0.017273,0.015686,0.000977,0.023438,-0.015625,0.003906
28541644000,0.999756,-0.017273,0.015686,0.001038,-0.015625,-0.015625,0.003906
28562259000,0.999756,-0.017273,0.015747,0.001038,-0.015625,-0.007812,0.003906
28587812000,0.999756,-0.017273,0.015686,0.001038,-0.015625,-0.007812,0.042969
28602208000,0.999756,-0.017273,0.015686,0.001038,-0.015625,0.031250,0.003906
28621319000,0.999756,-0.017334,0.015686,0.000977,0.023438,-0.007812,0.003906
28651383000,0.999756,-0.017334,0.015686,0.001038,0.023438,0.031250,0.003906
28661796000,0.999756,-0.017334,0.015686,0.001038,-0.015625,0.031250,0.003906
28681770000,0.999756,-0.017334,0.015686,0.001038,-0.015625,-0.007812,0.003906
28702392000,0.999756,-0.017334,0.015686,0.001038,-0.015625,0.031250,0.003906
28728463000,0.999756,-0.017273,0.015686,0.001038,-0.015625,-0.007812,0.003906
28741422000,0.999756,-0.017273,0.015686,0.001038,-0.015625,-0.007812,0.003906
28764798000,0.999756,-0.017273,0.015686,0.001038,-0.015625,0.031250,0.003906
28780919000,0.999756,-0.017334,0.015686,0.001038,-0.015625,-0.007812,0.003906
28801331000,0.999756,-0.017334,0.015686,0.000977,0.023438,-0.007812,-0.035156
28828066000,0.999756,-0.017334,0.015686,0.000977,-0.015625,-0.007812,0.003906
28841069000,0.999756,-0.017273,0.015686,0.001038,-0.015625,-0.007812,0.003906
28860778000,0.999756,-0.017273,0.015686,0.001038,-0.015625,-0.007812,0.003906
28890585000,0.999756,-0.017334,0.015686,0.001038,-0.015625,-0.007812,0.003906
28901479000,0.999756,-0.017273,0.015686,0.001038,0.023438,-0.007812,0.003906
28920986000,0.999756,-0.017273,0.015686,0.001038,-0.015625,-0.007812,-0.035156
28951201000,0.999756,-0.017273,0.015686,0.001038,-0.015625,-0.007812,0.003906
28966483000,0.999756,-0.017273,0.015747,0.001038,0.023438,-0.007812,0.003906
28980760000,0.999756,-0.017273,0.015747,0.001038,0.023438,-0.007812,-0.035156
29001127000,0.999756,-0.017273,0.015747,0.001099,-0.015625,-0.007812,0.003906
29025055000,0.999756,-0.017273,0.015747,0.001099,0.023438,-0.007812,0.003906
29043620000,0.999756,-0.017212,0.015747,0.001099,0.023438,-0.007812,0.003906
29060720000,0.999756,-0.017212,0.015747,0.001099,-0.015625,0.023438,-0.035156
29090413000,0.999756,-0.017212,0.015747,0.001160,-0.015625,-0.007812,0.003906
29107053000,0.999756,-0.017212,0.015747,0.001160,0.023438,-0.007812,0.003906
29120065000,0.999756,-0.017212,0.015686,0.001160,-0.015625,-0.007812,0.003906
29140302000,0.999756,-0.017212,0.015747,0.001160,-0.015625,-0.007812,0.003906
29160383000,0.999756,-0.017212,0.015686,0.001160,-0.015625,-0.007812,0.003906
29184894000,0.999756,-0.017212,0.015747,0.001160,0.023438,-0.007812,0.003906
29199822000,0.999756,-0.017212,0.015686,0.001160,-0.015625,-0.007812,0.003906
29219828000,0.999756,-0.017273,0.015686,0.001160,-0.015625,0.000000,0.003906
29240551000,0.999756,-0.017273,0.015686,0.001160,0.023438,0.000000,0.003906
29260120000,0.999756,-0.017273,0.015686,0.001160,0.023438,0.000000,0.003906
29289533000,0.999756,-0.017334,0.015686,0.001160,0.023438,0.000000,0.003906
29299620000,0.999756,-0.017334,0.015686,0.001160,0.023438,0.000000,0.003906
29319981000,0.999756,-0.017334,0.015686,0.001160,0.023438,0.000000,0.003906
29350430000,0.999756,-0.017334,0.015686,0.001099,-0.023438,0.000000,0.042969
29359612000,0.999756,-0.017334,0.015686,0.001099,-0.023438,0.000000,0.003906
29379633000,0.999756,-0.017273,0.015686,0.001099,-0.015625,0.000000,0.003906
29400183000,0.999756,-0.017273,0.015686,0.001160,0.023438,0.000000,0.003906
29419918000,0.999756,-0.017273,0.015686,0.001160,0.023438,0.000000,0.003906
29439700000,0.999756,-0.017273,0.015686,0.001160,-0.015625,0.000000,0.003906
29461287000,0.999756,-0.017273,0.015686,0.001160,-0.015625,0.000000,0.003906
29484554000,0.999756,-0.017334,0.015686,0.001160,-0.015625,0.000000,0.003906
29498966000,0.999756,-0.017334,0.015686,0.001160,0.023438,0.039062,0.042969
29519140000,0.999756,-0.017334,0.015686,0.001160,0.015625,0.000000,0.003906
29538788000,0.999756,-0.017334,0.015686,0.001160,-0.023438,0.000000,0.042969
29558858000,0.999756,-0.017334,0.015686,0.001160,0.015625,-0.007812,-0.035156
29579612000,0.999756,-0.017334,0.015686,0.001160,0.015625,-0.007812,0.003906
29608449000,0.999756,-0.017334,0.015686,0.001160,-0.023438,-0.007812,0.003906
29618971000,0.999756,-0.017334,0.015686,0.001160,-0.023438,-0.007812,0.003906
29638362000,0.999756,-0.017334,0.015686,0.001160,0.015625,-0.007812,0.003906
29668216000,0.999756,-0.017334,0.015686,0.001160,0.015625,-0.007812,0.003906
29678891000,0.999756,-0.017334,0.015686,0.001160,0.015625,-0.007812,-0.003906
29698627000,0.999756,-0.017334,0.015686,0.001160,-0.023438,-0.007812,0.035156
29728373000,0.999756,-0.017334,0.015686,0.001160,0.015625,-0.007812,-0.003906
29738526000,0.999756,-0.017334,0.015686,0.001160,-0.023438,-0.007812,-0.003906
29759576000,0.999756,-0.017334,0.015686,0.001160,-0.023438,-0.007812,-0.003906
29788104000,0.999756,-0.017334,0.015686,0.001160,-0.023438,0.031250,-0.003906
29798079000,0.999756,-0.017334,0.015686,0.001160,0.015625,-0.007812,-0.003906
29817924000,0.999756,-0.017334,0.015686,0.001160,0.015625,-0.007812,-0.003906
29839142000,0.999756,-0.017334,0.015686,0.001160,-0.023438,-0.007812,-0.003906
29858207000,0.999756,-0.017334,0.015686,0.001160,-0.023438,-0.007812,-0.003906
29878708000,0.999756,-0.017334,0.015686,0.001160,-0.015625,-0.007812,-0.003906
29897903000,0.999756,-0.017334,0.015686,0.001160,0.023438,0.000000,-0.003906
29927686000,0.999695,-0.017395,0.015686,0.001160,-0.015625,0.000000,0.035156
29937820000,0.999695,-0.017395,0.015686,0.001160,0.023438,0.000000,-0.003906
29958275000,0.999695,-0.017395,0.015747,0.001099,0.023438,0.000000,-0.042969
29978021000,0.999695,-0.017456,0.015686,0.001099,0.023438,0.000000,0.003906
29999406000,0.999695,-0.017456,0.015686,0.001099,-0.015625,0.039062,0.003906
30023306000,0.999695,-0.017456,0.015686,0.001099,-0.015625,0.039062,-0.035156
30038038000,0.999695,-0.017456,0.015686,0.001099,0.023438,0.000000,0.003906
30057635000,0.999695,-0.017456,0.015686,0.001099,0.023438,0.000000,0.003906
30077552000,0.999695,-0.017456,0.015686,0.001099,-0.015625,0.000000,0.042969
30097529000,0.999695,-0.017456,0.015686,0.001099,0.023438,0.000000,0.003906
30117713000,0.999695,-0.017456,0.015686,0.001099,-0.015625,0.000000,-0.035156
30137755000,0.999695,-0.017456,0.015686,0.001099,-0.015625,0.000000,0.003906
30169516000,0.999695,-0.017517,0.015686,0.001099,-0.015625,0.000000,0.042969
30184493000,0.999695,-0.017517,0.015686,0.001099,0.023438,0.039062,0.042969
30197548000,0.999695,-0.017517,0.015686,0.001099,-0.015625,-0.007812,0.003906
30218024000,0.999695,-0.017517,0.015686,0.001099,0.023438,-0.007812,0.003906
30246977000,0.999695,-0.017578,0.015625,0.001099,0.023438,-0.007812,-0.003906
30257592000,0.999695,-0.017517,0.015625,0.001099,-0.015625,0.031250,-0.003906
30277580000,0.999695,-0.017517,0.015686,0.001099,-0.015625,0.031250,-0.003906
30298301000,0.999695,-0.017517,0.015625,0.001099,-0.015625,-0.007812,-0.003906
30327369000,0.999695,-0.017578,0.015625,0.001099,0.023438,-0.007812,-0.003906
30337319000,0.999695,-0.017517,0.015625,0.001099,-0.015625,-0.007812,0.003906
30357375000,0.999695,-0.017517,0.015625,0.001099,-0.015625,-0.007812,0.003906
30386799000,0.999695,-0.017517,0.015625,0.001160,-0.015625,-0.007812,0.003906
30402232000,0.999695,-0.017517,0.015625,0.001160,0.023438,-0.007812,0.003906
30416959000,0.999695,-0.017517,0.015625,0.001160,-0.015625,-0.007812,0.003906
30437253000,0.999695,-0.017578,0.015625,0.001160,0.023438,-0.007812,0.003906
30457185000,0.999695,-0.017578,0.015686,0.001160,-0.015625,-0.007812,0.003906
30486795000,0.999695,-0.017578,0.015686,0.001160,0.023438,0.031250,0.003906
30496441000,0.999695,-0.017578,0.015686,0.001160,-0.015625,-0.007812,0.003906
30517024000,0.999695,-0.017578,0.015686,0.001160,0.023438,-0.007812,0.042969
30546056000,0.999695,-0.017578,0.015686,0.001099,0.023438,-0.007812,-0.003906
30556792000,0.999695,-0.017578,0.015686,0.001099,-0.015625,-0.007812,-0.003906
30579793000,0.999695,-0.017639,0.015686,0.001160,0.023438,0.039062,-0.003906
30597676000,0.999695,-0.017639,0.015686,0.001160,0.023438,0.000000,-0.003906
30616687000,0.999695,-0.017639,0.015686,0.001160,0.023438,0.000000,-0.003906
30637081000,0.999695,-0.017639,0.015686,0.001160,-0.015625,0.000000,0.003906
30665975000,0.999695,-0.017639,0.015686,0.001160,-0.015625,0.000000,-0.003906
30675927000,0.999695,-0.017578,0.015686,0.001160,0.023438,0.000000,-0.003906
30696688000,0.999695,-0.017578,0.015686,0.001160,-0.015625,0.000000,-0.003906
30717035000,0.999695,-0.017578,0.015686,0.001160,0.023438,0.039062,-0.035156
30746313000,0.999695,-0.017578,0.015686,0.001160,0.015625,-0.007812,0.003906
30755205000,0.999695,-0.017578,0.015747,0.001160,0.015625,-0.007812,0.003906
30776480000,0.999695,-0.017578,0.015747,0.001160,0.015625,-0.007812,0.003906
30805469000,0.999695,-0.017578,0.015747,0.001160,0.015625,-0.007812,-0.035156
30815734000,0.999695,-0.017578,0.015686,0.001160,0.015625,-0.007812,0.003906
30836677000,0.999695,-0.017578,0.015686,0.001160,-0.023438,0.031250,0.003906
30856994000,0.999695,-0.017578,0.015686,0.001160,-0.023438,0.000000,0.003906
30887927000,0.999695,-0.017578,0.015747,0.001160,-0.023438,-0.007812,-0.035156
30897418000,0.999695,-0.017578,0.015747,0.001160,-0.023438,-0.007812,-0.035156
30916648000,0.999695,-0.017578,0.015747,0.001160,-0.023438,-0.007812,0.042969
30938299000,0.999695,-0.017517,0.015625,0.001160,0.015625,-0.007812,0.003906
30961406000,0.999695,-0.017578,0.015625,0.001160,-0.132812,-0.046875,-0.152344
30976223000,0.999695,-0.017578,0.015686,0.001160,0.023438,0.066406,0.085938
30996718000,0.999695,-0.017578,0.015686,0.001221,-0.054688,-0.007812,-0.066406
31024582000,0.999695,-0.017578,0.015686,0.001160,0.031250,0.000000,0.011719
31035259000,0.999695,-0.017578,0.015747,0.001160,-0.007812,0.000000,0.050781
31067259000,0.999695,-0.017578,0.015747,0.001221,0.031250,0.039062,0.050781
31085222000,0.999695,-0.017639,0.015747,0.001221,-0.007812,0.000000,0.011719
31102240000,0.999695,-0.017639,0.015747,0.001221,0.031250,0.000000,0.011719
31116164000,0.999695,-0.017700,0.015808,0.001282,0.066406,-0.039062,0.011719
31144702000,0.999695,-0.017639,0.015808,0.001343,0.480469,0.000000,0.011719
31164280000,0.999695,-0.017639,0.015747,0.001343,1.109375,-0.039062,0.050781
31184686000,0.999695,-0.017456,0.015747,0.001343,1.531250,-0.078125,0.011719
31195538000,0.999695,-0.017456,0.015808,0.001343,1.492188,0.031250,0.003906
31224340000,0.999695,-0.017456,0.015930,0.001282,0.640625,-0.007812,0.003906
31243862000,0.999695,-0.017517,0.015991,0.001221,0.640625,-0.007812,0.203125
31267814000,0.999695,-0.017334,0.016113,0.001221,0.527344,-0.046875,0.117188
31275304000,0.999695,-0.017456,0.016113,0.001221,0.218750,-0.007812,0.003906
31304110000,0.999695,-0.017517,0.016113,0.001160,0.175781,0.031250,-0.113281
31329881000,0.999695,-0.017578,0.016174,0.001160,-0.140625,0.105469,0.125000
31344258000,0.999695,-0.017456,0.016235,0.001099,-0.062500,-0.046875,-0.179688
31364385000,0.999695,-0.017395,0.016235,0.001099,-0.148438,-0.046875,-0.144531
31383930000,0.999695,-0.017517,0.016296,0.001038,-0.417969,0.144531,0.011719
31407054000,0.999695,-0.017395,0.016235,0.001038,-0.425781,0.066406,-0.066406
31415228000,0.999695,-0.017456,0.016296,0.001038,-0.308594,-0.007812,0.242188
31444002000,0.999695,-0.017334,0.016357,0.001038,-0.730469,-0.007812,-0.144531
31463470000,0.999695,-0.017334,0.016357,0.001038,-0.394531,0.031250,0.164062
31486174000,0.999695,-0.017334,0.016357,0.000977,-0.468750,0.031250,-0.105469
31508428000,0.999695,-0.017212,0.016418,0.000977,-0.425781,0.031250,0.011719
31523463000,0.999695,-0.017273,0.016418,0.000977,-0.386719,-0.093750,-0.105469
31543217000,0.999695,-0.017151,0.016418,0.000977,-0.578125,-0.046875,-0.027344
31564025000,0.999695,-0.017273,0.016418,0.000977,-0.691406,0.066406,0.085938
31589830000,0.999695,-0.017212,0.016479,0.001038,-0.660156,0.066406,0.125000
31603407000,0.999695,-0.017273,0.016479,0.000977,-0.468750,-0.046875,0.050781
31623203000,0.999695,-0.017273,0.016418,0.000977,-0.203125,-0.046875,0.011719
31648159000,0.999695,-0.017334,0.016479,0.000977,-0.046875,0.031250,-0.027344
31662662000,0.999695,-0.017212,0.016479,0.000977,0.105469,-0.046875,0.050781
31682740000,0.999695,-0.017212,0.016541,0.000977,-0.046875,-0.007812,-0.027344
31709969000,0.999695,-0.017212,0.016479,0.000916,-0.277344,0.031250,0.117188
31722633000,0.999695,-0.017151,0.016541,0.000977,-0.125000,-0.054688,0.003906
31742618000,0.999695,-0.017090,0.016541,0.000916,-0.011719,-0.054688,0.042969
31763036000,0.999695,-0.016968,0.016479,0.000916,-0.203125,0.023438,-0.035156
31783081000,0.999695,-0.017151,0.016602,0.000854,-0.203125,0.023438,-0.035156
31802653000,0.999695,-0.017090,0.016541,0.000793,-0.433594,-0.046875,0.003906
31822559000,0.999695,-0.017212,0.016541,0.000854,-0.433594,0.097656,-0.074219
31842340000,0.999695,-0.017151,0.016602,0.000854,-0.316406,0.066406,0.042969
31863010000,0.999695,-0.017151,0.016602,0.000854,-0.433594,0.023438,0.003906
31882249000,0.999695,-0.017151,0.016602,0.000854,-0.230469,0.023438,0.003906
31903060000,0.999695,-0.017151,0.016602,0.000854,-0.308594,0.023438,0.003906
31922459000,0.999695,-0.017090,0.016541,0.000854,-0.347656,-0.015625,-0.035156
31946609000,0.999695,-0.017090,0.016541,0.000854,-0.078125,0.023438,0.003906
31962742000,0.999695,-0.017029,0.016541,0.000854,0.125000,0.007812,0.011719
31982442000,0.999695,-0.017029,0.016602,0.000854,0.125000,0.007812,-0.027344
32013096000,0.999695,-0.017090,0.016541,0.000854,0.117188,-0.031250,0.011719
32029047000,0.999695,-0.017090,0.016541,0.000793,0.117188,-0.031250,0.050781
32041948000,0.999695,-0.017090,0.016541,0.000793,0.070312,0.007812,0.011719
32063338000,0.999695,-0.017029,0.016541,0.000793,0.109375,0.007812,-0.027344
32086255000,0.999695,-0.017029,0.016479,0.000793,0.093750,-0.031250,-0.027344
32101814000,0.999695,-0.017029,0.016479,0.000793,0.085938,0.015625,0.011719
32121903000,0.999695,-0.017029,0.016479,0.000793,0.078125,0.015625,0.050781
32142975000,0.999695,-0.016968,0.016479,0.000793,0.078125,0.015625,0.011719
32167211000,0.999695,-0.016968,0.016479,0.000793,0.070312,0.015625,0.050781
32181631000,0.999695,-0.016968,0.016479,0.000793,0.062500,0.015625,0.003906
32202373000,0.999695,-0.017029,0.016479,0.000732,0.054688,-0.023438,0.003906
32232110000,0.999695,-0.016968,0.016479,0.000793,0.046875,-0.023438,0.003906
32241725000,0.999695,-0.016968,0.016479,0.000732,0.046875,0.015625,0.042969
32261241000,0.999695,-0.017029,0.016479,0.000732,0.039062,0.015625,-0.035156
32282021000,0.999695,-0.017029,0.016479,0.000732,0.000000,0.015625,0.003906
32311704000,0.999695,-0.017029,0.016479,0.000732,0.031250,0.015625,0.003906
32321663000,0.999695,-0.017029,0.016479,0.000732,0.031250,0.015625,0.003906
32341183000,0.999695,-0.017029,0.016479,0.000732,0.031250,-0.023438,0.003906
32361501000,0.999695,-0.017029,0.016479,0.000732,0.023438,-0.023438,0.003906
32387439000,0.999695,-0.017029,0.016418,0.000732,-0.015625,0.015625,0.003906
32401054000,0.999695,-0.017090,0.016418,0.000732,0.054688,0.015625,0.042969
32423221000,0.999695,-0.017090,0.016418,0.000732,0.015625,0.015625,0.003906
32451594000,0.999695,-0.017090,0.016418,0.000732,0.015625,0.015625,0.003906
32468798000,0.999695,-0.017090,0.016418,0.000732,0.015625,0.015625,0.003906
32480731000,0.999695,-0.017090,0.016418,0.000732,0.015625,0.015625,0.042969
32501268000,0.999695,-0.017090,0.016418,0.000732,0.007812,0.015625,0.003906
32520471000,0.999695,-0.017090,0.016479,0.000732,-0.031250,-0.023438,0.003906
32541415000,0.999695,-0.017029,0.016479,0.000732,0.007812,0.015625,0.003906
32560986000,0.999695,-0.017029,0.016479,0.000732,0.007812,-0.031250,0.003906
32583660000,0.999695,-0.017029,0.016479,0.000732,0.007812,0.007812,0.003906
32600690000,0.999695,-0.017029,0.016479,0.000732,0.007812,-0.031250,0.042969
32620951000,0.999695,-0.017029,0.016479,0.000732,0.007812,-0.031250,0.003906
32651016000,0.999695,-0.017029,0.016479,0.000732,0.007812,-0.023438,0.003906
32666124000,0.999695,-0.016968,0.016479,0.000732,0.007812,0.015625,0.003906
32680340000,0.999695,-0.016968,0.016479,0.000732,0.007812,0.015625,0.003906
32700723000,0.999695,-0.017029,0.016479,0.000732,0.007812,0.015625,0.003906
32720186000,0.999695,-0.017029,0.016479,0.000732,0.007812,-0.023438,0.003906
32750481000,0.999695,-0.017029,0.016479,0.000671,0.007812,0.015625,0.042969
32759859000,0.999695,-0.017029,0.016479,0.000671,0.007812,-0.023438,0.003906
32780140000,0.999695,-0.016968,0.016479,0.000671,0.007812,-0.023438,0.003906
32800581000,0.999695,-0.016968,0.016479,0.000671,0.007812,0.015625,0.003906
32832117000,0.999695,-0.016968,0.016479,0.000671,0.000000,0.015625,0.003906
32847075000,0.999695,-0.016968,0.016479,0.000671,0.000000,0.015625,0.003906
32860107000,0.999695,-0.016968,0.016479,0.000671,0.000000,-0.023438,0.042969
32879967000,0.999695,-0.016907,0.016479,0.000671,0.000000,-0.023438,0.003906
32910238000,0.999695,-0.016907,0.016479,0.000671,0.000000,0.015625,0.003906
32919600000,0.999695,-0.016907,0.016479,0.000671,0.000000,0.015625,0.003906
32939701000,0.999695,-0.016907,0.016479,0.000671,0.000000,0.015625,0.003906
32959955000,0.999695,-0.016846,0.016479,0.000671,0.000000,-0.023438,0.003906
32981219000,0.999695,-0.016846,0.016479,0.000671,0.000000,-0.023438,0.003906
32999637000,0.999695,-0.016846,0.016479,0.000671,0.000000,0.015625,0.042969
33019913000,0.999695,-0.016846,0.016479,0.000610,0.000000,0.015625,0.003906
33049685000,0.999695,-0.016846,0.016479,0.000610,0.000000,0.015625,0.003906
33065648000,0.999695,-0.016846,0.016479,0.000610,0.000000,-0.023438,0.003906
33079148000,0.999695,-0.016846,0.016479,0.000671,0.039062,-0.023438,0.003906
33099416000,0.999695,-0.016846,0.016479,0.000671,0.000000,0.015625,0.003906
33119949000,0.999695,-0.016846,0.016479,0.000671,0.000000,-0.023438,0.003906
33146053000,0.999695,-0.016846,0.016479,0.000671,0.000000,-0.023438,0.003906
33159062000,0.999695,-0.016846,0.016479,0.000671,0.039062,0.015625,0.042969
33179537000,0.999695,-0.016846,0.016479,0.000671,0.000000,-0.023438,0.003906
33199188000,0.999695,-0.016846,0.016418,0.000671,0.000000,-0.015625,0.003906
33225206000,0.999695,-0.016846,0.016479,0.000671,0.000000,0.023438,0.042969
33241617000,0.999695,-0.016846,0.016479,0.000732,0.039062,-0.015625,0.003906
33264242000,0.999695,-0.016846,0.016479,0.000732,0.000000,-0.015625,0.003906
33278556000,0.999695,-0.016846,0.016479,0.000732,0.039062,-0.015625,0.003906
33303600000,0.999695,-0.016846,0.016479,0.000732,0.000000,0.023438,0.003906
33318578000,0.999695,-0.016846,0.016479,0.000732,0.000000,0.023438,0.003906
