timestamp_ns,qw,qx,qy,qz,ax,ay,az,t_sec,dist_e05a1,dist_83a8d,dist_48e72
2393882000,0.999146,-0.007996,0.041199,-0.000305,0.0,0.011719,-0.035156,0.08519,4.4,2.4,5.14
2403274000,0.999146,-0.007996,0.041199,-0.000366,0.0,0.011719,0.011719,0.094582,,,
2413642000,0.999146,-0.007996,0.04126,-0.000366,-0.039062,-0.027344,0.011719,0.10495,,,
2433862000,0.999146,-0.007935,0.04126,-0.000366,0.0,0.011719,0.011719,0.12517,,,
2443265000,0.999146,-0.007935,0.04126,-0.000366,0.0,0.011719,-0.027344,0.134573,,,
2455590000,0.999146,-0.007935,0.04126,-0.000366,0.0,0.011719,-0.027344,0.146898,,,
2463423000,0.999146,-0.007935,0.04126,-0.000366,0.0,-0.027344,0.011719,0.154731,,,
2480871000,0.999146,-0.007935,0.04126,-0.000366,0.0,0.011719,-0.027344,0.172179,,,
2493234000,0.999146,-0.007874,0.04126,-0.000366,0.0,-0.027344,-0.027344,0.184542,,,
2509750000,0.999146,-0.007874,0.041321,-0.000366,-0.039062,0.011719,-0.027344,0.201058,,,
2523508000,0.999146,-0.007935,0.041321,-0.000366,-0.03125,-0.027344,0.011719,0.214816,4.39,2.43,5.13
2538170000,0.999146,-0.007874,0.041321,-0.000427,0.007812,0.019531,0.011719,0.229478,,,
2552901000,0.999146,-0.007874,0.041321,-0.000427,-0.03125,0.019531,0.011719,0.244209,,,
2563277000,0.999146,-0.007935,0.041321,-0.000427,-0.03125,0.019531,0.011719,0.254585,,,
2583510000,0.999146,-0.007935,0.041321,-0.000427,0.007812,-0.019531,0.011719,0.274818,,,
2593046000,0.999146,-0.007935,0.041321,-0.000427,0.015625,-0.011719,0.019531,0.284354,,,
2613194000,0.999146,-0.007996,0.04126,-0.000427,0.015625,-0.011719,0.019531,0.304502,,,
2623993000,0.999146,-0.007935,0.041321,-0.000427,-0.023438,-0.011719,0.019531,0.315301,,,
2643234000,0.999146,-0.007935,0.041321,-0.000427,-0.023438,0.027344,-0.019531,0.334542,,,
2663179000,0.999084,-0.007996,0.041321,-0.000427,0.015625,0.027344,-0.019531,0.354487,,,
2687157000,0.999084,-0.007935,0.041321,-0.000427,-0.023438,-0.011719,-0.019531,0.378465,,,
2703051000,0.999084,-0.007935,0.041321,-0.000427,0.015625,-0.011719,0.019531,0.394359,,,
2724980000,0.999146,-0.007935,0.041321,-0.000427,0.015625,0.027344,0.019531,0.416288,4.38,2.37,5.15
2747108000,0.999146,-0.007935,0.04126,-0.000427,0.015625,0.027344,0.019531,0.438416,,,
2762288000,0.999146,-0.007935,0.04126,-0.000427,0.015625,0.027344,-0.019531,0.453596,,,
2783385000,0.999146,-0.007996,0.04126,-0.000427,0.015625,0.027344,-0.019531,0.474693,,,
2809237000,0.999146,-0.007996,0.041199,-0.000427,0.015625,-0.011719,-0.019531,0.500545,,,
2822301000,0.999146,-0.007996,0.04126,-0.000427,-0.023438,-0.011719,-0.019531,0.513609,,,
2844288000,0.999146,-0.007996,0.04126,-0.000488,0.015625,0.027344,0.019531,0.535596,,,
2862738000,0.999146,-0.007996,0.04126,-0.000488,0.015625,0.027344,-0.019531,0.554046,,,
2883798000,0.999146,-0.007996,0.04126,-0.000488,0.015625,0.019531,0.019531,0.575106,,,
2906565000,0.999146,-0.007996,0.04126,-0.000488,-0.023438,-0.019531,0.019531,0.597873,,,
2921888000,0.999146,-0.008057,0.04126,-0.000488,0.015625,-0.011719,0.019531,0.613196,4.36,2.37,5.11
2942677000,0.999146,-0.008057,0.041199,-0.000488,0.007812,0.027344,0.019531,0.633985,,,
2967799000,0.999146,-0.007996,0.041199,-0.000427,0.007812,-0.011719,-0.019531,0.659107,,,
2982095000,0.999146,-0.007996,0.04126,-0.000427,-0.03125,0.027344,0.019531,0.673403,,,
3001754000,0.999146,-0.008057,0.04126,-0.000427,-0.03125,0.019531,0.019531,0.693062,,,
3027633000,0.999146,-0.008057,0.04126,-0.000427,0.007812,0.019531,0.019531,0.718941,,,
3042149000,0.999146,-0.008057,0.04126,-0.000427,0.007812,0.019531,0.019531,0.733457,,,
3061541000,0.999146,-0.008057,0.04126,-0.000427,0.007812,-0.019531,0.019531,0.752849,,,
3081936000,0.999146,-0.008057,0.04126,-0.000427,0.007812,0.019531,0.050781,0.773244,,,
3103984000,0.999146,-0.008057,0.04126,-0.000427,0.007812,-0.019531,0.011719,0.795292,,,
3121863000,0.999146,-0.008057,0.04126,-0.000427,0.007812,0.019531,0.011719,0.813171,4.39,2.37,5.14
3141450000,0.999146,-0.008057,0.04126,-0.000427,-0.03125,0.019531,0.011719,0.832758,,,
3161498000,0.999146,-0.008057,0.04126,-0.000427,0.007812,-0.019531,-0.027344,0.852806,,,
3191830000,0.999146,-0.008057,0.04126,-0.000427,0.015625,0.019531,-0.027344,0.883138,,,
3201396000,0.999146,-0.008057,0.04126,-0.000427,0.015625,0.019531,-0.027344,0.892704,,,
3221066000,0.999146,-0.008057,0.04126,-0.000427,0.007812,-0.019531,-0.027344,0.912374,,,
3251592000,0.999146,-0.008057,0.04126,-0.000427,0.007812,-0.019531,0.011719,0.9429,,,
3260883000,0.999146,-0.008057,0.04126,-0.000427,0.007812,-0.019531,0.011719,0.952191,,,
3281241000,0.999146,-0.008057,0.04126,-0.000427,0.007812,-0.019531,-0.027344,0.972549,,,
3301094000,0.999146,-0.008057,0.04126,-0.000427,0.007812,-0.019531,0.011719,0.992402,,,
3320797000,0.999084,-0.008118,0.04126,-0.000427,-0.03125,0.019531,-0.027344,1.012105,4.38,2.37,5.1
3350813000,0.999146,-0.008118,0.04126,-0.000427,0.007812,0.027344,0.011719,1.042121,,,
3366459000,0.999146,-0.008118,0.04126,-0.000427,0.007812,-0.011719,0.011719,1.057767,,,
3380789000,0.999146,-0.008118,0.04126,-0.000427,0.007812,0.027344,0.011719,1.072097,,,
3400691000,0.999146,-0.008118,0.04126,-0.000427,-0.03125,0.019531,0.011719,1.091999,,,
3430846000,0.999146,-0.008118,0.04126,-0.000427,-0.023438,-0.019531,-0.027344,1.122154,,,
3449488000,0.999146,-0.008118,0.04126,-0.000427,0.015625,-0.019531,-0.027344,1.140796,,,
3456830000,0.999146,-0.008118,0.04126,-0.000427,-0.023438,-0.019531,-0.027344,1.148138,,,
3479253000,0.999146,-0.008118,0.04126,-0.000427,0.015625,0.019531,0.011719,1.170561,,,
3497201000,0.999146,-0.008118,0.04126,-0.000427,0.015625,0.019531,0.011719,1.188509,,,
3517231000,0.999146,-0.008118,0.04126,-0.000427,-0.023438,0.019531,0.011719,1.208539,4.35,2.37,5.16
3538680000,0.999146,-0.008118,0.04126,-0.000427,0.015625,-0.019531,-0.027344,1.229988,,,
3562235000,0.999146,-0.008118,0.04126,-0.000427,0.015625,-0.019531,0.011719,1.253543,,,
3580000000,0.999146,-0.008118,0.04126,-0.000427,0.015625,-0.019531,0.050781,1.271308,,,
3601031000,0.999146,-0.008118,0.04126,-0.000427,0.015625,0.019531,0.011719,1.292339,,,
3624708000,0.999146,-0.008118,0.04126,-0.000427,0.015625,-0.019531,-0.027344,1.316016,,,
3640372000,0.999146,-0.008118,0.04126,-0.000427,-0.023438,-0.019531,-0.027344,1.33168,,,
3661449000,0.999146,-0.008118,0.04126,-0.000427,0.015625,-0.019531,-0.027344,1.352757,,,
3680547000,0.999146,-0.008118,0.04126,-0.000427,0.015625,0.027344,0.011719,1.371855,,,
3700808000,0.999146,-0.008118,0.04126,-0.000427,0.015625,0.027344,0.011719,1.392116,,,
3725796000,0.999146,-0.008118,0.04126,-0.000427,-0.023438,-0.011719,-0.027344,1.417104,4.38,2.4,5.15
3739783000,0.999146,-0.008118,0.04126,-0.000427,-0.023438,-0.011719,-0.027344,1.431091,,,
3759468000,0.999146,-0.008118,0.04126,-0.000427,0.015625,0.027344,0.011719,1.450776,,,
3782045000,0.999146,-0.008118,0.04126,-0.000427,0.015625,0.027344,0.011719,1.473353,,,
3799679000,0.999146,-0.008118,0.04126,-0.000427,-0.023438,-0.011719,-0.027344,1.490987,,,
3820331000,0.999146,-0.008118,0.04126,-0.000427,0.015625,0.027344,-0.027344,1.511639,,,
3849968000,0.999146,-0.008118,0.04126,-0.000427,0.015625,-0.011719,0.011719,1.541276,,,
3859482000,0.999146,-0.008118,0.04126,-0.000427,0.015625,0.027344,0.011719,1.55079,,,
3879155000,0.999146,-0.008118,0.04126,-0.000427,0.015625,0.027344,0.011719,1.570463,,,
3899405000,0.999146,-0.008118,0.04126,-0.000427,0.015625,-0.011719,0.011719,1.590713,,,
3918981000,0.999146,-0.008118,0.04126,-0.000427,0.015625,-0.011719,0.011719,1.610289,4.38,2.38,5.11
3939089000,0.999146,-0.008118,0.04126,-0.000427,0.015625,-0.011719,0.011719,1.630397,,,
3968968000,0.999146,-0.008118,0.04126,-0.000427,0.007812,-0.011719,-0.027344,1.660276,,,
3979728000,0.999146,-0.008118,0.04126,-0.000427,0.007812,0.027344,0.011719,1.671036,,,
3998775000,0.999146,-0.008118,0.04126,-0.000427,0.007812,0.027344,0.011719,1.690083,,,
4018972000,0.999146,-0.008118,0.04126,-0.000427,0.007812,0.027344,0.011719,1.71028,,,
4038726000,0.999146,-0.008118,0.04126,-0.000427,0.007812,-0.011719,0.011719,1.730034,,,
4070634000,0.999146,-0.008118,0.04126,-0.000427,0.007812,0.027344,0.011719,1.761942,,,
4079910000,0.999146,-0.008118,0.04126,-0.000427,0.007812,-0.011719,0.011719,1.771218,,,
4108985000,0.999146,-0.008118,0.04126,-0.000427,-0.03125,0.027344,0.011719,1.800293,,,
4118266000,0.999146,-0.008118,0.04126,-0.000427,0.007812,0.027344,0.011719,1.809574,4.39,2.39,5.11
4138426000,0.999146,-0.008118,0.04126,-0.000427,0.007812,-0.011719,0.011719,1.829734,,,
4163017000,0.999146,-0.008118,0.04126,-0.000427,0.007812,0.027344,-0.027344,1.854325,,,
4178961000,0.999146,-0.008118,0.04126,-0.000427,-0.03125,-0.011719,0.050781,1.870269,,,
4198531000,0.999146,-0.008118,0.04126,-0.000427,0.007812,0.027344,0.011719,1.889839,,,
4222724000,0.999146,-0.008118,0.04126,-0.000427,0.007812,0.019531,0.050781,1.914032,,,
4237891000,0.999146,-0.008118,0.04126,-0.000427,0.007812,-0.019531,0.050781,1.929199,,,
4258540000,0.999146,-0.008118,0.04126,-0.000427,-0.03125,0.027344,0.011719,1.949848,,,
4280214000,0.999146,-0.008118,0.04126,-0.000427,0.007812,0.027344,0.011719,1.971522,,,
4302930000,0.999146,-0.008118,0.04126,-0.000427,0.007812,-0.019531,0.011719,1.994238,,,
4318144000,0.999146,-0.008118,0.04126,-0.000427,0.007812,0.019531,0.011719,2.009452,4.35,2.39,5.11
4339488000,0.999146,-0.008118,0.04126,-0.000427,0.007812,-0.019531,-0.027344,2.030796,,,
4358976000,0.999146,-0.008118,0.04126,-0.000427,-0.03125,-0.019531,-0.027344,2.050284,,,
4383387000,0.999146,-0.008118,0.04126,-0.000427,-0.03125,0.019531,0.011719,2.074695,,,
4398075000,0.999146,-0.008118,0.04126,-0.000427,-0.03125,-0.019531,0.011719,2.089383,,,
4419016000,0.999146,-0.008118,0.04126,-0.000427,0.015625,-0.019531,0.011719,2.110324,,,
4437886000,0.999146,-0.008118,0.04126,-0.000427,0.015625,-0.019531,0.011719,2.129194,,,
4457815000,0.999146,-0.008118,0.04126,-0.000427,-0.023438,-0.019531,-0.027344,2.149123,,,
4477938000,0.999146,-0.008118,0.04126,-0.000427,0.015625,0.019531,0.011719,2.169246,,,
4507935000,0.999146,-0.008118,0.04126,-0.000427,0.015625,0.019531,0.003906,2.199243,,,
4517460000,0.999146,-0.008118,0.04126,-0.000427,0.015625,-0.019531,0.003906,2.208768,4.36,2.37,5.1
4537667000,0.999146,-0.008118,0.04126,-0.000427,0.015625,0.019531,-0.035156,2.228975,,,
4569613000,0.999146,-0.008118,0.04126,-0.000427,-0.023438,0.019531,-0.035156,2.260921,,,
4577760000,0.999146,-0.008118,0.04126,-0.000427,0.015625,0.019531,0.003906,2.269068,,,
4598613000,0.999146,-0.008118,0.04126,-0.000427,-0.023438,-0.019531,0.011719,2.289921,,,
4617714000,0.999146,-0.008118,0.04126,-0.000427,0.015625,0.019531,0.011719,2.309022,,,
4637288000,0.999146,-0.008118,0.04126,-0.000427,0.015625,0.019531,0.050781,2.328596,,,
4657439000,0.999146,-0.008118,0.04126,-0.000427,-0.023438,0.019531,0.011719,2.348747,,,
4677989000,0.999146,-0.008118,0.04126,-0.000427,0.015625,0.019531,0.003906,2.369297,,,
4702395000,0.999146,-0.008118,0.04126,-0.000427,-0.023438,0.019531,0.003906,2.393703,,,
4717063000,0.999146,-0.008118,0.04126,-0.000427,-0.023438,0.019531,0.003906,2.408371,4.38,2.37,5.09
4737284000,0.999146,-0.008118,0.04126,-0.000427,0.015625,-0.019531,0.003906,2.428592,,,
4767761000,0.999146,-0.008118,0.04126,-0.000427,0.015625,0.019531,0.003906,2.459069,,,
4783145000,0.999146,-0.008118,0.04126,-0.000427,0.015625,-0.019531,0.003906,2.474453,,,
4797384000,0.999146,-0.008118,0.04126,-0.000427,-0.023438,-0.019531,0.003906,2.488692,,,
4816718000,0.999146,-0.008118,0.04126,-0.000427,0.015625,0.019531,0.003906,2.508026,,,
4838010000,0.999146,-0.008118,0.04126,-0.000427,0.015625,-0.019531,0.003906,2.529318,,,
4857535000,0.999146,-0.008118,0.04126,-0.000427,0.015625,0.019531,0.003906,2.548843,,,
4896652000,0.999146,-0.008118,0.04126,-0.000427,0.015625,-0.019531,0.003906,2.58796,,,
4906555000,0.999146,-0.008118,0.04126,-0.000427,-0.023438,-0.019531,0.003906,2.597863,,,
4916939000,0.999146,-0.008118,0.04126,-0.000427,-0.023438,0.019531,0.003906,2.608247,4.4,2.37,5.12
4937404000,0.999146,-0.008118,0.04126,-0.000427,-0.023438,-0.019531,0.003906,2.628712,,,
4966205000,0.999146,-0.008118,0.04126,-0.000427,-0.023438,-0.019531,0.003906,2.657513,,,
4976212000,0.999146,-0.008118,0.04126,-0.000427,-0.023438,0.019531,0.042969,2.66752,,,
5005974000,0.999146,-0.008118,0.04126,-0.000427,-0.023438,0.019531,0.003906,2.697282,,,
5016190000,0.999146,-0.008118,0.04126,-0.000427,-0.023438,-0.019531,0.003906,2.707498,,,
5037061000,0.999146,-0.008118,0.04126,-0.000427,0.015625,0.019531,-0.035156,2.728369,,,
5065974000,0.999146,-0.008118,0.04126,-0.000427,0.023438,-0.019531,-0.035156,2.757282,,,
5076191000,0.999146,-0.008118,0.04126,-0.000427,0.023438,0.019531,0.003906,2.767499,,,
5106269000,0.999146,-0.008118,0.04126,-0.000427,0.015625,0.019531,0.003906,2.797577,,,
5117164000,0.999146,-0.008118,0.04126,-0.000427,0.015625,-0.019531,0.003906,2.808472,4.37,2.39,5.11
5137353000,0.999146,-0.008118,0.04126,-0.000427,0.015625,0.019531,0.003906,2.828661,,,
5165923000,0.999146,-0.008118,0.04126,-0.000427,0.015625,-0.019531,-0.035156,2.857231,,,
5175757000,0.999146,-0.008118,0.04126,-0.000427,0.015625,0.019531,0.003906,2.867065,,,
5196684000,0.999146,-0.008118,0.04126,-0.000427,-0.023438,-0.019531,0.003906,2.887992,,,
5226337000,0.999146,-0.008118,0.04126,-0.000427,0.015625,0.019531,0.011719,2.917645,,,
5235563000,0.999146,-0.008118,0.04126,-0.000427,0.015625,0.019531,0.011719,2.926871,,,
5256576000,0.999146,-0.008118,0.04126,-0.000427,0.015625,0.019531,0.011719,2.947884,,,
5276179000,0.999146,-0.008118,0.04126,-0.000427,0.015625,-0.019531,0.011719,2.967487,,,
5296452000,0.999146,-0.008118,0.04126,-0.000427,0.015625,0.019531,0.011719,2.98776,,,
5325527000,0.999146,-0.008118,0.04126,-0.000427,-0.023438,0.019531,0.011719,3.016835,4.39,2.36,5.09
5335282000,0.999146,-0.008118,0.04126,-0.000427,0.015625,-0.019531,0.011719,3.02659,,,
5356689000,0.999146,-0.008118,0.04126,-0.000427,0.015625,-0.019531,0.011719,3.047997,,,
5385432000,0.999146,-0.008118,0.04126,-0.000427,0.015625,0.019531,0.011719,3.07674,,,
5405813000,0.999146,-0.008118,0.04126,-0.000427,-0.023438,-0.019531,0.011719,3.097121,,,
5422186000,0.999146,-0.008118,0.04126,-0.000427,0.015625,-0.019531,0.011719,3.113494,,,
5436326000,0.999146,-0.008118,0.04126,-0.000427,-0.023438,-0.019531,-0.027344,3.127634,,,
5465415000,0.999146,-0.008118,0.04126,-0.000427,0.015625,-0.019531,0.011719,3.156723,,,
5485087000,0.999146,-0.008118,0.04126,-0.000427,0.015625,-0.019531,0.011719,3.176395,,,
5495510000,0.999146,-0.008118,0.04126,-0.000427,-0.023438,0.019531,0.011719,3.186818,,,
5516491000,0.999146,-0.008118,0.04126,-0.000427,0.015625,0.019531,0.003906,3.207799,,,
5542723000,0.999146,-0.008118,0.04126,-0.000427,-0.023438,0.019531,0.003906,3.234031,4.41,2.37,5.09
5556295000,0.999146,-0.008118,0.04126,-0.000427,-0.023438,-0.019531,0.003906,3.247603,,,
5584543000,0.999146,-0.008118,0.04126,-0.000427,0.015625,0.019531,-0.035156,3.275851,,,
5604423000,0.999146,-0.008118,0.04126,-0.000427,-0.023438,0.019531,0.003906,3.295731,,,
5631680000,0.999146,-0.008118,0.04126,-0.000427,0.015625,0.019531,0.003906,3.322988,,,
5644594000,0.999146,-0.008118,0.04126,-0.000427,-0.023438,0.019531,0.003906,3.335902,,,
5664561000,0.999146,-0.008118,0.04126,-0.000427,0.015625,-0.019531,0.042969,3.355869,,,
5690318000,0.999146,-0.008118,0.04126,-0.000427,0.015625,0.019531,-0.035156,3.381626,,,
5704942000,0.999146,-0.008118,0.04126,-0.000427,-0.023438,0.019531,0.042969,3.39625,,,
5724450000,0.999146,-0.008118,0.04126,-0.000427,0.015625,0.019531,0.003906,3.415758,4.38,2.34,5.15
5746745000,0.999146,-0.008118,0.04126,-0.000427,0.015625,-0.019531,0.003906,3.438053,,,
5767626000,0.999146,-0.008118,0.04126,-0.000427,-0.023438,0.019531,0.003906,3.458934,,,
5784157000,0.999146,-0.008118,0.04126,-0.000427,-0.023438,0.019531,-0.035156,3.475465,,,
5814541000,0.999146,-0.008118,0.04126,-0.000427,0.015625,-0.019531,0.003906,3.505849,,,
5830122000,0.999146,-0.008118,0.04126,-0.000427,0.015625,0.019531,0.003906,3.52143,,,
5843795000,0.999146,-0.008118,0.04126,-0.000427,0.015625,0.019531,0.003906,3.535103,,,
5863933000,0.999146,-0.008118,0.04126,-0.000427,-0.023438,-0.019531,0.003906,3.555241,,,
5889497000,0.999146,-0.008118,0.04126,-0.000427,0.015625,0.019531,0.003906,3.580805,,,
5903784000,0.999146,-0.008118,0.04126,-0.000427,0.015625,-0.019531,-0.035156,3.595092,,,
5923869000,0.999146,-0.008118,0.04126,-0.000427,-0.023438,-0.019531,-0.035156,3.615177,4.35,2.35,5.11
5950629000,0.999146,-0.008118,0.04126,-0.000427,0.015625,0.019531,0.003906,3.641937,,,
5963556000,0.999146,-0.008118,0.04126,-0.000427,-0.023438,0.019531,0.003906,3.654864,,,
5983608000,0.999146,-0.008118,0.04126,-0.000427,-0.023438,-0.019531,0.003906,3.674916,,,
6007198000,0.999146,-0.008118,0.04126,-0.000427,-0.023438,0.019531,0.003906,3.698506,,,
6030204000,0.999146,-0.008118,0.04126,-0.000427,0.015625,0.019531,0.003906,3.721512,,,
6043811000,0.999146,-0.008118,0.04126,-0.000427,0.015625,-0.019531,0.042969,3.735119,,,
6063017000,0.999146,-0.008118,0.04126,-0.000427,-0.023438,0.019531,-0.035156,3.754325,,,
6085032000,0.999146,-0.008118,0.04126,-0.000427,0.015625,0.019531,0.003906,3.77634,,,
6105411000,0.999146,-0.008118,0.04126,-0.000427,0.015625,0.019531,0.003906,3.796719,,,
6123911000,0.999146,-0.008118,0.04126,-0.000427,-0.023438,-0.019531,0.003906,3.815219,4.35,2.4,5.12
6147759000,0.999146,-0.008118,0.04126,-0.000427,-0.023438,0.019531,0.003906,3.839067,,,
6163528000,0.999146,-0.008118,0.04126,-0.000427,0.015625,0.019531,0.003906,3.854836,,,
6182880000,0.999146,-0.008118,0.04126,-0.000427,0.015625,0.019531,0.003906,3.874188,,,
6210228000,0.999146,-0.008118,0.04126,-0.000427,-0.023438,0.019531,0.003906,3.901536,,,
6223504000,0.999146,-0.008118,0.04126,-0.000427,0.015625,0.019531,-0.035156,3.914812,,,
6242690000,0.999146,-0.008118,0.04126,-0.000427,0.015625,-0.019531,0.003906,3.933998,,,
6262619000,0.999146,-0.008118,0.04126,-0.000427,0.015625,0.019531,0.003906,3.953927,,,
6282982000,0.999146,-0.008118,0.04126,-0.000427,0.015625,0.019531,0.003906,3.97429,,,
6304056000,0.999146,-0.008118,0.04126,-0.000427,-0.023438,-0.019531,-0.035156,3.995364,,,
6323039000,0.999146,-0.008118,0.04126,-0.000427,0.015625,0.019531,0.003906,4.014347,4.35,2.4,5.09
6345304000,0.999084,-0.008118,0.04126,-0.000366,-0.023438,-0.019531,0.003906,4.036612,,,
6362514000,0.999084,-0.008118,0.04126,-0.000427,0.015625,-0.019531,0.003906,4.053822,,,
6387654000,0.999084,-0.008118,0.04126,-0.000427,0.015625,0.019531,0.003906,4.078962,,,
6402501000,0.999084,-0.008118,0.04126,-0.000366,0.015625,-0.019531,0.003906,4.093809,,,
6422907000,0.999084,-0.008118,0.04126,-0.000427,0.015625,0.019531,0.003906,4.114215,,,
6442142000,0.999084,-0.008118,0.04126,-0.000427,0.054688,-0.019531,0.003906,4.13345,,,
6463069000,0.999084,-0.008118,0.04126,-0.000427,0.007812,0.019531,0.003906,4.154377,,,
6482002000,0.999084,-0.008118,0.041321,-0.000427,-0.03125,0.019531,0.003906,4.17331,,,
6501994000,0.999084,-0.008118,0.041321,-0.000427,-0.03125,-0.019531,0.003906,4.193302,,,
6522916000,0.999084,-0.008118,0.04126,-0.000427,0.007812,0.019531,0.003906,4.214224,4.4,2.37,5.1
6541711000,0.999084,-0.008118,0.041321,-0.000427,-0.03125,-0.019531,0.003906,4.233019,,,
6561704000,0.999084,-0.008118,0.041321,-0.000427,0.007812,0.019531,0.003906,4.253012,,,
6585057000,0.999084,-0.008118,0.041321,-0.000427,-0.023438,0.019531,0.003906,4.276365,,,
6602484000,0.999084,-0.008118,0.041321,-0.000427,0.015625,0.019531,0.003906,4.293792,,,
6622460000,0.999084,-0.008179,0.041321,-0.000427,0.015625,-0.019531,0.003906,4.313768,,,
6642252000,0.999084,-0.008118,0.041321,-0.000427,0.015625,0.019531,0.003906,4.33356,,,
6661940000,0.999084,-0.008118,0.041321,-0.000427,-0.023438,0.019531,0.003906,4.353248,,,
6682009000,0.999084,-0.008118,0.041321,-0.000427,0.015625,-0.019531,0.003906,4.373317,,,
6701985000,0.999084,-0.008118,0.041321,-0.000427,-0.023438,0.019531,-0.035156,4.393293,,,
6725583000,0.999084,-0.008118,0.041321,-0.000427,0.015625,0.019531,0.003906,4.416891,4.32,2.38,5.12
6747454000,0.999084,-0.008118,0.04126,-0.000427,0.015625,0.019531,0.003906,4.438762,,,
6761767000,0.999084,-0.008118,0.04126,-0.000427,0.015625,0.019531,0.003906,4.453075,,,
6782465000,0.999146,-0.008057,0.04126,-0.000427,0.015625,-0.019531,0.003906,4.473773,,,
6808336000,0.999146,-0.008057,0.04126,-0.000427,0.015625,0.019531,0.003906,4.499644,,,
6822524000,0.999146,-0.008057,0.04126,-0.000427,0.015625,0.019531,0.003906,4.513832,,,
6841369000,0.999146,-0.008057,0.04126,-0.000427,-0.023438,0.019531,0.003906,4.532677,,,
6868469000,0.999146,-0.007996,0.04126,-0.000427,0.015625,0.019531,0.003906,4.559777,,,
6880734000,0.999146,-0.008057,0.04126,-0.000427,0.015625,0.019531,0.003906,4.572042,,,
6901666000,0.999146,-0.007996,0.04126,-0.000427,-0.023438,0.019531,-0.035156,4.592974,,,
6926704000,0.999146,-0.008057,0.04126,-0.000366,0.015625,0.019531,0.003906,4.618012,4.37,2.38,5.1
6941382000,0.999146,-0.007996,0.04126,-0.000366,0.015625,0.019531,0.003906,4.63269,,,
6960668000,0.999146,-0.008057,0.04126,-0.000427,0.015625,0.019531,0.003906,4.651976,,,
6982221000,0.999146,-0.008057,0.04126,-0.000427,0.015625,0.011719,-0.035156,4.673529,,,
7008183000,0.999146,-0.007996,0.04126,-0.000427,0.007812,0.011719,0.003906,4.699491,,,
7020621000,0.999084,-0.007996,0.041321,-0.000427,0.007812,0.011719,0.003906,4.711929,,,
7041134000,0.999146,-0.007996,0.04126,-0.000427,0.007812,0.011719,0.003906,4.732442,,,
7067726000,0.999084,-0.007996,0.041321,-0.000427,0.007812,0.011719,0.003906,4.759034,,,
7080504000,0.999084,-0.007996,0.041321,-0.000427,0.007812,0.011719,0.003906,4.771812,,,
7100582000,0.999084,-0.007996,0.041321,-0.000427,0.007812,-0.027344,0.003906,4.79189,,,
7128553000,0.999084,-0.007996,0.041321,-0.000427,0.007812,0.011719,0.042969,4.819861,4.37,2.35,5.1
7140865000,0.999084,-0.007996,0.041321,-0.000427,-0.03125,-0.027344,0.003906,4.832173,,,
7160963000,0.999084,-0.007935,0.041321,-0.000427,0.007812,-0.027344,0.003906,4.852271,,,
7180738000,0.999084,-0.007935,0.041321,-0.000488,0.007812,0.011719,0.003906,4.872046,,,
7205700000,0.999084,-0.007935,0.041321,-0.000488,0.007812,0.011719,0.003906,4.897008,,,
7220505000,0.999084,-0.007935,0.041321,-0.000427,0.007812,0.011719,0.003906,4.911813,,,
7240654000,0.999146,-0.007935,0.041321,-0.000427,0.007812,-0.027344,0.003906,4.931962,,,
7264901000,0.999146,-0.007935,0.04126,-0.000427,-0.03125,0.011719,-0.035156,4.956209,,,
7280257000,0.999146,-0.007935,0.04126,-0.000427,0.007812,0.011719,0.003906,4.971565,,,
7299875000,0.999146,-0.007935,0.04126,-0.000427,0.007812,0.011719,0.003906,4.991183,,,
7320364000,0.999146,-0.007935,0.041321,-0.000427,0.007812,-0.027344,0.003906,5.011672,,,
7340028000,0.999146,-0.007935,0.041321,-0.000427,-0.03125,0.011719,0.003906,5.031336,4.36,2.34,5.15
7359858000,0.999146,-0.007935,0.041321,-0.000427,0.007812,0.011719,0.003906,5.051166,,,
7380062000,0.999146,-0.007935,0.041321,-0.000427,0.007812,0.011719,0.003906,5.07137,,,
7399693000,0.999146,-0.007935,0.041321,-0.000427,-0.03125,-0.027344,0.003906,5.091001,,,
7419972000,0.999146,-0.007935,0.041321,-0.000427,0.007812,0.011719,0.003906,5.11128,,,
7439600000,0.999146,-0.007935,0.041321,-0.000427,0.007812,-0.027344,0.003906,5.130908,,,
7461782000,0.999146,-0.007935,0.041321,-0.000427,0.007812,-0.027344,0.003906,5.15309,,,
7479449000,0.999146,-0.007935,0.041321,-0.000427,0.007812,-0.027344,0.003906,5.170757,,,
7499127000,0.999146,-0.007935,0.041321,-0.000427,0.007812,0.011719,-0.003906,5.190435,,,
7519585000,0.999146,-0.007935,0.041321,-0.000427,0.007812,0.011719,-0.003906,5.210893,,,
7554103000,0.999146,-0.007935,0.041321,-0.000427,0.007812,0.011719,-0.003906,5.245411,4.35,2.38,5.12
7568784000,0.999146,-0.007935,0.041321,-0.000427,-0.03125,0.011719,0.003906,5.260092,,,
7579698000,0.999146,-0.007935,0.041321,-0.000427,-0.03125,-0.027344,0.003906,5.271006,,,
7599125000,0.999146,-0.007935,0.041321,-0.000427,0.007812,0.011719,0.003906,5.290433,,,
7619561000,0.999146,-0.007935,0.041321,-0.000427,0.007812,-0.027344,0.003906,5.310869,,,
7645860000,0.999146,-0.007935,0.041321,-0.000427,0.007812,0.011719,0.003906,5.337168,,,
7659119000,0.999146,-0.007935,0.041321,-0.000427,0.007812,0.011719,0.003906,5.350427,,,
7679064000,0.999146,-0.007935,0.041321,-0.000427,-0.03125,0.011719,0.003906,5.370372,,,
7699926000,0.999146,-0.007935,0.041321,-0.000427,0.007812,0.011719,0.003906,5.391234,,,
7722807000,0.999146,-0.007935,0.041321,-0.000427,0.007812,0.011719,-0.035156,5.414115,,,
7738701000,0.999146,-0.007935,0.041321,-0.000427,0.007812,0.011719,0.003906,5.430009,4.36,2.37,5.07
7759147000,0.999146,-0.007935,0.041321,-0.000427,0.007812,0.011719,0.003906,5.450455,,,
7788165000,0.999146,-0.007935,0.041321,-0.000427,0.007812,0.011719,0.003906,5.479473,,,
7798185000,0.999146,-0.007935,0.041321,-0.000427,-0.03125,0.011719,0.003906,5.489493,,,
7818413000,0.999146,-0.007935,0.041321,-0.000427,0.007812,-0.027344,0.003906,5.509721,,,
7838485000,0.999146,-0.007935,0.041321,-0.000427,0.007812,0.011719,0.003906,5.529793,,,
7868057000,0.999146,-0.007935,0.041321,-0.000427,0.007812,0.011719,0.003906,5.559365,,,
7884027000,0.999146,-0.007935,0.041321,-0.000427,-0.03125,0.011719,0.003906,5.575335,,,
7898044000,0.999146,-0.007935,0.041321,-0.000427,0.007812,-0.027344,0.003906,5.589352,,,
7918353000,0.999146,-0.007935,0.041321,-0.000427,-0.03125,0.011719,0.003906,5.609661,,,
7944686000,0.999146,-0.007935,0.041321,-0.000427,0.007812,0.011719,-0.003906,5.635994,4.37,2.36,5.12
7958361000,0.999146,-0.007935,0.041321,-0.000427,-0.03125,0.011719,-0.042969,5.649669,,,
7988031000,0.999146,-0.007935,0.041321,-0.000427,0.007812,-0.027344,0.003906,5.679339,,,
7998219000,0.999146,-0.007935,0.041321,-0.000427,-0.03125,0.011719,0.003906,5.689527,,,
8018118000,0.999146,-0.007935,0.041321,-0.000427,0.007812,-0.027344,0.003906,5.709426,,,
8037998000,0.999146,-0.007935,0.041321,-0.000427,0.007812,0.011719,0.003906,5.729306,,,
8058016000,0.999146,-0.007935,0.041321,-0.000427,0.007812,0.011719,0.003906,5.749324,,,
8077583000,0.999146,-0.007935,0.041321,-0.000427,0.007812,0.011719,0.042969,5.768891,,,
8097800000,0.999146,-0.007935,0.041321,-0.000427,-0.03125,0.011719,0.003906,5.789108,,,
8118009000,0.999146,-0.007935,0.041321,-0.000427,0.007812,0.011719,0.003906,5.809317,,,
8138504000,0.999146,-0.007935,0.041321,-0.000427,0.007812,0.011719,0.003906,5.829812,4.38,2.38,5.1
8165282000,0.999146,-0.007935,0.041321,-0.000427,0.007812,0.011719,-0.003906,5.85659,,,
8178089000,0.999146,-0.007935,0.041321,-0.000427,-0.03125,-0.027344,-0.003906,5.869397,,,
8207129000,0.999146,-0.007935,0.041321,-0.000427,0.007812,-0.027344,-0.003906,5.898437,,,
8217800000,0.999146,-0.007935,0.041321,-0.000427,0.007812,0.011719,-0.003906,5.909108,,,
8247186000,0.999146,-0.007935,0.041321,-0.000427,0.007812,-0.027344,-0.003906,5.938494,,,
8257889000,0.999146,-0.007935,0.041321,-0.000427,0.007812,0.011719,-0.003906,5.949197,,,
8277485000,0.999146,-0.007935,0.041321,-0.000427,0.007812,0.011719,-0.003906,5.968793,,,
8306743000,0.999146,-0.007935,0.041321,-0.000427,0.007812,-0.027344,-0.003906,5.998051,,,
8317330000,0.999146,-0.007935,0.041321,-0.000427,0.007812,0.011719,-0.042969,6.008638,,,
8337402000,0.999146,-0.007935,0.041321,-0.000427,-0.03125,0.011719,0.035156,6.02871,4.39,2.38,5.11
8366683000,0.999146,-0.007935,0.041321,-0.000427,0.007812,-0.027344,-0.003906,6.057991,,,
8375971000,0.999146,-0.007935,0.041321,-0.000427,0.007812,0.019531,-0.003906,6.067279,,,
8397593000,0.999146,-0.007935,0.041321,-0.000427,0.007812,0.011719,-0.003906,6.088901,,,
8425287000,0.999146,-0.007935,0.041321,-0.000427,0.007812,0.011719,-0.003906,6.116595,,,
8435296000,0.999146,-0.007935,0.041321,-0.000427,0.007812,0.011719,-0.003906,6.126604,,,
8465662000,0.999146,-0.007935,0.041321,-0.000427,0.007812,0.011719,-0.042969,6.15697,,,
8476959000,0.999146,-0.007935,0.041321,-0.000427,0.007812,0.011719,-0.003906,6.168267,,,
8496970000,0.999146,-0.007935,0.041321,-0.000427,-0.03125,0.011719,-0.003906,6.188278,,,
8526249000,0.999146,-0.007935,0.041321,-0.000427,-0.03125,0.011719,0.035156,6.217557,4.34,2.38,5.1
8536508000,0.999146,-0.007935,0.041321,-0.000427,0.007812,0.011719,-0.003906,6.227816,,,
8557403000,0.999146,-0.007935,0.041321,-0.000427,0.007812,0.011719,-0.003906,6.248711,,,
8577128000,0.999146,-0.007935,0.041321,-0.000427,0.007812,0.011719,-0.003906,6.268436,,,
8606877000,0.999146,-0.007935,0.041321,-0.000427,-0.03125,0.011719,-0.003906,6.298185,,,
8616299000,0.999146,-0.007935,0.041321,-0.000427,0.007812,0.011719,-0.003906,6.307607,,,
8637059000,0.999146,-0.007935,0.041321,-0.000427,-0.03125,0.011719,-0.003906,6.328367,,,
8666554000,0.999146,-0.007935,0.041321,-0.000427,0.007812,0.011719,-0.003906,6.357862,,,
8676072000,0.999146,-0.007935,0.041321,-0.000427,0.007812,0.011719,-0.003906,6.36738,,,
8697176000,0.999146,-0.007935,0.041321,-0.000427,0.007812,-0.027344,0.035156,6.388484,,,
8725682000,0.999146,-0.007935,0.041321,-0.000427,0.007812,0.011719,-0.003906,6.41699,,,
8736259000,0.999146,-0.007935,0.041321,-0.000427,0.007812,0.011719,0.035156,6.427567,4.39,2.38,5.07
8768860000,0.999146,-0.007935,0.041321,-0.000427,0.007812,0.011719,-0.003906,6.460168,,,
8776048000,0.999146,-0.007935,0.041321,-0.000427,0.007812,0.011719,-0.003906,6.467356,,,
8796590000,0.999146,-0.007935,0.041321,-0.000427,0.007812,-0.027344,-0.003906,6.487898,,,
8816971000,0.999146,-0.007935,0.041321,-0.000427,0.007812,-0.027344,-0.003906,6.508279,,,
8845556000,0.999146,-0.007935,0.041321,-0.000427,0.007812,-0.027344,-0.003906,6.536864,,,
8855891000,0.999146,-0.007935,0.041321,-0.000427,0.007812,0.011719,-0.003906,6.547199,,,
8876646000,0.999146,-0.007935,0.041321,-0.000427,0.007812,0.011719,-0.003906,6.567954,,,
8905338000,0.999146,-0.007935,0.041321,-0.000427,0.007812,0.011719,0.035156,6.596646,,,
8915423000,0.999146,-0.007935,0.041321,-0.000427,0.007812,0.011719,-0.003906,6.606731,,,
8936615000,0.999146,-0.007935,0.041321,-0.000427,-0.03125,0.011719,-0.003906,6.627923,4.34,2.35,5.12
8956914000,0.999146,-0.007935,0.041321,-0.000427,0.007812,-0.027344,-0.003906,6.648222,,,
8984986000,0.999146,-0.007935,0.041321,-0.000427,0.007812,0.011719,-0.003906,6.676294,,,
8995269000,0.999146,-0.007935,0.041321,-0.000427,-0.03125,0.011719,0.035156,6.686577,,,
9025119000,0.999146,-0.007935,0.041321,-0.000427,0.007812,0.011719,-0.003906,6.716427,,,
9035278000,0.999146,-0.007935,0.041321,-0.000427,-0.03125,-0.027344,-0.003906,6.726586,,,
9057006000,0.999146,-0.007935,0.041321,-0.000427,0.046875,0.011719,-0.003906,6.748314,,,
9085052000,0.999146,-0.007935,0.041321,-0.000427,0.007812,-0.027344,-0.003906,6.77636,,,
9095406000,0.999146,-0.007935,0.041321,-0.000427,0.046875,-0.027344,-0.003906,6.786714,,,
9116400000,0.999146,-0.007935,0.041321,-0.000427,0.007812,0.011719,0.035156,6.807708,,,
9136684000,0.999146,-0.007935,0.041321,-0.000427,0.007812,-0.027344,-0.003906,6.827992,4.37,2.39,5.07
9164422000,0.999146,-0.007935,0.041321,-0.000427,0.007812,0.019531,0.035156,6.85573,,,
9183748000,0.999146,-0.007935,0.041321,-0.000427,0.007812,0.019531,-0.003906,6.875056,,,
9196413000,0.999146,-0.007935,0.041321,-0.000427,0.007812,0.019531,0.035156,6.887721,,,
9224805000,0.999146,-0.007935,0.041321,-0.000427,0.007812,0.019531,0.035156,6.916113,,,
9244762000,0.999146,-0.007935,0.041321,-0.000427,0.007812,-0.019531,-0.003906,6.93607,,,
9255299000,0.999146,-0.007935,0.041321,-0.000427,0.007812,0.019531,-0.003906,6.946607,,,
9290203000,0.999146,-0.007935,0.041321,-0.000427,-0.03125,0.019531,-0.003906,6.981511,,,
9304418000,0.999146,-0.007935,0.041321,-0.000427,0.007812,0.019531,0.035156,6.995726,,,
9324117000,0.999146,-0.007935,0.041321,-0.000427,0.007812,-0.019531,0.035156,7.015425,,,
9335330000,0.999146,-0.007935,0.041321,-0.000427,0.007812,0.019531,-0.003906,7.026638,4.38,2.37,5.1
9364464000,0.999146,-0.007935,0.041321,-0.000427,-0.03125,0.019531,0.035156,7.055772,,,
9384320000,0.999146,-0.007935,0.041321,-0.000427,0.007812,-0.019531,0.035156,7.075628,,,
9403927000,0.999146,-0.007935,0.041321,-0.000427,0.007812,0.019531,-0.003906,7.095235,,,
9415291000,0.999146,-0.007935,0.041321,-0.000427,-0.03125,0.011719,-0.003906,7.106599,,,
9444250000,0.999146,-0.007935,0.041321,-0.000427,0.007812,0.011719,-0.003906,7.135558,,,
9464042000,0.999146,-0.007935,0.041321,-0.000427,-0.03125,0.011719,-0.003906,7.15535,,,
9486218000,0.999146,-0.007935,0.041321,-0.000427,0.007812,0.011719,0.035156,7.177526,,,
9508007000,0.999146,-0.007935,0.041321,-0.000427,0.007812,0.011719,-0.003906,7.199315,,,
9525361000,0.999146,-0.007935,0.041321,-0.000427,0.007812,0.011719,-0.003906,7.216669,,,
9543951000,0.999146,-0.007935,0.041321,-0.000427,0.007812,0.011719,-0.003906,7.235259,4.32,2.34,5.14
9563721000,0.999146,-0.007935,0.041321,-0.000427,-0.03125,-0.027344,0.035156,7.255029,,,
9585996000,0.999146,-0.007935,0.041321,-0.000427,0.007812,0.011719,-0.003906,7.277304,,,
9610742000,0.999146,-0.007935,0.041321,-0.000427,0.046875,-0.027344,0.035156,7.30205,,,
9623229000,0.999146,-0.007935,0.041321,-0.000427,-0.03125,0.011719,0.035156,7.314537,,,
9643758000,0.999146,-0.007935,0.041321,-0.000427,0.007812,0.011719,0.035156,7.335066,,,
9668991000,0.999146,-0.007935,0.041321,-0.000427,-0.03125,0.011719,0.035156,7.360299,,,
9683335000,0.999146,-0.007935,0.041321,-0.000427,-0.03125,0.011719,-0.003906,7.374643,,,
9702860000,0.999146,-0.007935,0.041321,-0.000427,0.007812,0.011719,-0.003906,7.394168,,,
9723779000,0.999146,-0.007935,0.041321,-0.000427,-0.03125,-0.027344,0.035156,7.415087,,,
9750148000,0.999146,-0.007935,0.041321,-0.000427,0.007812,-0.027344,-0.003906,7.441456,4.39,2.36,5.12
9762891000,0.999146,-0.007935,0.041321,-0.000427,-0.03125,0.011719,-0.003906,7.454199,,,
9784624000,0.999146,-0.007935,0.041321,-0.000427,-0.03125,-0.027344,0.035156,7.475932,,,
9807256000,0.999146,-0.007935,0.041321,-0.000427,0.007812,0.011719,-0.003906,7.498564,,,
9823327000,0.999146,-0.007935,0.041321,-0.000427,0.007812,0.011719,0.035156,7.514635,,,
9843084000,0.999146,-0.007935,0.041321,-0.000427,-0.03125,0.011719,-0.003906,7.534392,,,
9862972000,0.999146,-0.007935,0.041321,-0.000427,0.007812,0.011719,-0.003906,7.55428,,,
9886943000,0.999146,-0.007935,0.041321,-0.000427,0.007812,0.011719,-0.003906,7.578251,,,
9902977000,0.999146,-0.007935,0.041321,-0.000427,0.007812,0.011719,-0.003906,7.594285,,,
9922476000,0.999146,-0.007935,0.041321,-0.000427,-0.03125,-0.027344,-0.003906,7.613784,,,
9942566000,0.999146,-0.007935,0.041321,-0.000427,0.007812,0.011719,0.035156,7.633874,4.41,2.38,5.1
9962806000,0.999146,-0.007935,0.041321,-0.000427,0.007812,-0.027344,-0.003906,7.654114,,,
9983006000,0.999146,-0.007935,0.041321,-0.000427,0.007812,0.011719,-0.003906,7.674314,,,
10002307000,0.999146,-0.007935,0.041321,-0.000427,0.007812,0.011719,-0.003906,7.693615,,,
10022254000,0.999146,-0.007935,0.041321,-0.000427,0.007812,-0.027344,-0.003906,7.713562,,,
10042808000,0.999146,-0.007935,0.041321,-0.000427,-0.03125,-0.027344,-0.003906,7.734116,,,
10062445000,0.999146,-0.007935,0.041321,-0.000427,-0.03125,-0.027344,0.035156,7.753753,,,
10083181000,0.999146,-0.007935,0.041321,-0.000427,0.007812,0.011719,0.035156,7.774489,,,
10101968000,0.999146,-0.007935,0.041321,-0.000427,0.007812,0.011719,-0.003906,7.793276,,,
10122308000,0.999146,-0.007935,0.041321,-0.000427,0.007812,0.011719,0.035156,7.813616,,,
10141716000,0.999146,-0.007935,0.041321,-0.000427,0.007812,-0.027344,-0.003906,7.833024,4.35,2.37,5.13
10168044000,0.999146,-0.007935,0.041321,-0.000427,0.007812,0.019531,-0.003906,7.859352,,,
10181671000,0.999146,-0.007935,0.041321,-0.000427,0.007812,0.019531,-0.003906,7.872979,,,
10201633000,0.999146,-0.007935,0.041321,-0.000427,-0.03125,0.019531,-0.003906,7.892941,,,
10227262000,0.999146,-0.007935,0.041321,-0.000427,0.007812,0.019531,-0.003906,7.91857,,,
10242106000,0.999146,-0.007935,0.041321,-0.000427,0.007812,-0.019531,-0.003906,7.933414,,,
10261426000,0.999146,-0.007935,0.041321,-0.000427,0.007812,0.019531,0.035156,7.952734,,,
10291477000,0.999146,-0.007935,0.041321,-0.000427,-0.03125,0.011719,-0.003906,7.982785,,,
10304723000,0.999146,-0.007935,0.041321,-0.000427,0.007812,0.011719,-0.003906,7.996031,,,
10321449000,0.999146,-0.007935,0.041321,-0.000427,0.007812,0.011719,-0.003906,8.012757,,,
10341162000,0.999146,-0.007935,0.041321,-0.000427,0.007812,0.011719,0.035156,8.03247,4.4,2.37,5.09
10362002000,0.999146,-0.007935,0.041321,-0.000427,0.007812,0.011719,-0.003906,8.05331,,,
10388457000,0.999146,-0.007935,0.041321,-0.000427,0.007812,0.011719,0.035156,8.079765,,,
10400940000,0.999146,-0.007935,0.041321,-0.000427,0.007812,0.011719,0.035156,8.092248,,,
10421167000,0.999146,-0.007935,0.041321,-0.000427,0.007812,0.011719,-0.003906,8.112475,,,
10445517000,0.999146,-0.007935,0.041321,-0.000427,-0.03125,-0.027344,-0.003906,8.136825,,,
10461945000,0.999146,-0.007935,0.041321,-0.000427,0.007812,-0.027344,0.035156,8.153253,,,
10480866000,0.999146,-0.007935,0.041321,-0.000427,0.007812,0.011719,-0.003906,8.172174,,,
10501171000,0.999146,-0.007935,0.041321,-0.000427,0.007812,0.011719,-0.003906,8.192479,,,
10520829000,0.999146,-0.007935,0.041321,-0.000427,0.007812,0.011719,0.035156,8.212137,,,
10550875000,0.999146,-0.007935,0.041321,-0.000427,0.007812,0.011719,-0.003906,8.242183,4.34,2.4,5.14
10561971000,0.999146,-0.007935,0.041321,-0.000427,0.007812,0.011719,-0.003906,8.253279,,,
10580750000,0.999146,-0.007935,0.041321,-0.000427,0.007812,0.011719,0.035156,8.272058,,,
10604039000,0.999146,-0.007935,0.041321,-0.000427,0.007812,0.011719,-0.003906,8.295347,,,
10620624000,0.999146,-0.007935,0.041321,-0.000427,0.007812,0.011719,-0.003906,8.311932,,,
10640568000,0.999146,-0.007935,0.041321,-0.000427,0.007812,0.011719,0.035156,8.331876,,,
10665192000,0.999146,-0.007935,0.041321,-0.000427,0.007812,0.011719,-0.003906,8.3565,,,
10680298000,0.999146,-0.007935,0.041321,-0.000427,-0.03125,0.011719,-0.003906,8.371606,,,
10699985000,0.999146,-0.007935,0.041321,-0.000427,0.007812,0.011719,0.035156,8.391293,,,
10720575000,0.999146,-0.007935,0.041321,-0.000427,0.007812,0.011719,0.035156,8.411883,,,
10746015000,0.999146,-0.007935,0.041321,-0.000427,0.007812,0.011719,0.035156,8.437323,4.36,2.39,5.08
10760581000,0.999146,-0.007935,0.041321,-0.000427,-0.03125,0.011719,-0.003906,8.451889,,,
10780045000,0.999146,-0.007935,0.041321,-0.000427,0.007812,-0.027344,-0.003906,8.471353,,,
10800975000,0.999146,-0.007935,0.041321,-0.000427,-0.03125,0.050781,-0.042969,8.492283,,,
10827236000,0.999146,-0.007935,0.041321,-0.000427,0.007812,0.011719,-0.003906,8.518544,,,
10840022000,0.999146,-0.007935,0.041321,-0.000427,0.007812,0.011719,0.035156,8.53133,,,
10859682000,0.999146,-0.007935,0.041321,-0.000427,0.007812,-0.027344,-0.042969,8.55099,,,
10880507000,0.999146,-0.007935,0.041321,-0.000427,-0.03125,0.011719,-0.003906,8.571815,,,
10904487000,0.999146,-0.007935,0.041321,-0.000427,-0.03125,0.011719,-0.003906,8.595795,,,
10919423000,0.999146,-0.007935,0.041321,-0.000427,0.007812,-0.027344,-0.003906,8.610731,,,
10940218000,0.999146,-0.007935,0.041321,-0.000427,0.007812,0.011719,-0.003906,8.631526,4.35,2.38,5.07
10959573000,0.999146,-0.007935,0.041321,-0.000427,0.007812,0.011719,-0.003906,8.650881,,,
10979574000,0.999146,-0.007935,0.041321,-0.000427,0.007812,0.011719,0.035156,8.670882,,,
10999948000,0.999146,-0.007935,0.041321,-0.000427,-0.03125,0.011719,0.035156,8.691256,,,
11021455000,0.999146,-0.007935,0.041321,-0.000427,0.007812,0.011719,-0.003906,8.712763,,,
11039202000,0.999146,-0.007935,0.041321,-0.000427,-0.03125,0.011719,-0.003906,8.73051,,,
11065417000,0.999146,-0.007935,0.041321,-0.000427,0.007812,-0.027344,-0.003906,8.756725,,,
11080938000,0.999146,-0.007935,0.041321,-0.000427,0.007812,-0.027344,-0.003906,8.772246,,,
11099716000,0.999146,-0.007935,0.041321,-0.000427,0.007812,0.011719,-0.003906,8.791024,,,
11121569000,0.999146,-0.007935,0.041321,-0.000427,0.007812,0.011719,0.035156,8.812877,,,
11145318000,0.999146,-0.007935,0.041321,-0.000427,0.007812,-0.027344,0.035156,8.836626,4.39,2.39,5.11
11159128000,0.999146,-0.007935,0.041321,-0.000427,0.007812,0.011719,0.035156,8.850436,,,
11179260000,0.999146,-0.007935,0.041321,-0.000427,0.007812,0.011719,-0.003906,8.870568,,,
11198925000,0.999146,-0.007935,0.041321,-0.000427,0.007812,0.011719,0.035156,8.890233,,,
11219134000,0.999146,-0.007935,0.041321,-0.000427,0.007812,0.011719,-0.003906,8.910442,,,
11248990000,0.999146,-0.007935,0.041321,-0.000427,0.007812,0.011719,-0.003906,8.940298,,,
11259438000,0.999146,-0.007935,0.041321,-0.000427,0.007812,-0.027344,-0.042969,8.950746,,,
11279033000,0.999146,-0.007935,0.041321,-0.000427,0.007812,-0.027344,-0.003906,8.970341,,,
11309090000,0.999146,-0.007935,0.041321,-0.000427,-0.03125,-0.027344,0.035156,9.000398,,,
11318478000,0.999146,-0.007935,0.041321,-0.000427,0.007812,0.011719,-0.003906,9.009786,,,
11339807000,0.999146,-0.007935,0.041321,-0.000427,0.007812,-0.027344,0.035156,9.031115,4.35,2.37,5.08
11358417000,0.999146,-0.007935,0.041321,-0.000427,-0.03125,0.011719,-0.003906,9.049725,,,
11388866000,0.999146,-0.007935,0.041321,-0.000427,0.007812,0.011719,-0.003906,9.080174,,,
11398406000,0.999146,-0.007935,0.041321,-0.000427,0.007812,0.011719,0.035156,9.089714,,,
11418687000,0.999146,-0.007935,0.041321,-0.000427,0.007812,0.011719,-0.003906,9.109995,,,
11448273000,0.999146,-0.007935,0.041321,-0.000427,0.007812,-0.027344,-0.003906,9.139581,,,
11458151000,0.999146,-0.007935,0.041321,-0.000427,0.007812,0.011719,-0.003906,9.149459,,,
11478353000,0.999146,-0.007935,0.041321,-0.000427,0.007812,-0.027344,0.035156,9.169661,,,
11500299000,0.999146,-0.007935,0.041321,-0.000427,0.007812,0.011719,0.035156,9.191607,,,
11517975000,0.999146,-0.007935,0.041321,-0.000427,0.007812,-0.027344,-0.003906,9.209283,,,
11538322000,0.999146,-0.007935,0.041321,-0.000427,0.007812,0.011719,0.035156,9.22963,4.39,2.37,5.11
11563831000,0.999146,-0.007935,0.041321,-0.000427,0.007812,0.011719,-0.003906,9.255139,,,
11577693000,0.999146,-0.007935,0.041321,-0.000427,0.007812,0.011719,-0.003906,9.269001,,,
11599434000,0.999146,-0.007935,0.041321,-0.000427,0.007812,0.011719,-0.003906,9.290742,,,
11628234000,0.999146,-0.007935,0.041321,-0.000427,0.007812,0.011719,-0.003906,9.319542,,,
11637787000,0.999146,-0.007935,0.041321,-0.000427,0.007812,0.011719,-0.042969,9.329095,,,
11667849000,0.999146,-0.007935,0.041321,-0.000427,0.007812,-0.027344,-0.003906,9.359157,,,
11677381000,0.999146,-0.007935,0.041321,-0.000427,0.007812,0.011719,-0.003906,9.368689,,,
11698224000,0.999146,-0.007935,0.041321,-0.000427,0.007812,0.011719,-0.003906,9.389532,,,
11727791000,0.999146,-0.007935,0.041321,-0.000427,0.0,0.011719,-0.003906,9.419099,,,
11737987000,0.999146,-0.007935,0.041321,-0.000427,0.0,0.011719,-0.003906,9.429295,4.38,2.38,5.13
11757679000,0.999146,-0.007935,0.041321,-0.000427,0.0,0.011719,-0.003906,9.448987,,,
11777978000,0.999146,-0.007935,0.041321,-0.000427,0.0,0.011719,0.042969,9.469286,,,
11807906000,0.999146,-0.007935,0.041321,-0.000427,0.0,0.011719,0.003906,9.499214,,,
11818099000,0.999146,-0.007935,0.041321,-0.000427,0.0,0.011719,0.035156,9.509407,,,
11839949000,0.999146,-0.007935,0.041321,-0.000427,0.0,0.011719,-0.003906,9.531257,,,
11858792000,0.999146,-0.007935,0.041321,-0.000427,0.0,0.011719,-0.003906,9.5501,,,
11877280000,0.999146,-0.007935,0.041321,-0.000427,0.0,-0.027344,-0.003906,9.568588,,,
11897576000,0.999084,-0.008118,0.041321,-0.000183,0.34375,-0.066406,-0.003906,9.588884,,,
11917203000,0.999084,-0.008423,0.04126,0.0,0.941406,0.050781,0.035156,9.608511,,,
11947548000,0.999146,-0.009155,0.040894,0.000305,1.195312,0.019531,0.265625,9.638856,4.37,2.35,5.11
11957454000,0.999146,-0.009521,0.040771,0.000549,1.195312,-0.242188,-0.082031,9.648762,,,
11977310000,0.999146,-0.010376,0.040283,0.000488,1.042969,0.226562,0.074219,9.668618,,,
12008221000,0.999207,-0.012573,0.038574,-0.00061,0.296875,0.441406,-1.0,9.699529,,,
12017163000,0.999207,-0.012451,0.03833,-0.000732,-1.019531,-2.613281,4.09375,9.708471,,,
12037525000,0.999207,-0.013306,0.037842,-0.001099,-0.914062,-0.355469,1.289062,9.728833,,,
12066451000,0.999207,-0.013428,0.037476,-0.001343,-0.652344,0.226562,0.179688,9.757759,,,
12083333000,0.999207,-0.013733,0.037231,-0.001404,-0.460938,-0.148438,0.140625,9.774641,,,
12097372000,0.999207,-0.01416,0.036804,-0.001282,0.097656,-0.261719,-0.355469,9.78868,,,
12117865000,0.999207,-0.014282,0.03656,-0.001465,-0.0625,-0.023438,0.410156,9.809173,,,
12147216000,0.999268,-0.014709,0.036011,-0.001465,-0.035156,-0.09375,-0.089844,9.838524,4.39,2.39,5.1
12156847000,0.999268,-0.014893,0.035889,-0.001404,0.074219,0.289062,-0.011719,9.848155,,,
12177145000,0.999268,-0.01532,0.0354,-0.001343,0.144531,-0.125,-0.050781,9.868453,,,
12197323000,0.999268,-0.015564,0.034973,-0.001282,-0.171875,0.265625,-0.128906,9.888631,,,
12216986000,0.999268,-0.015808,0.034668,-0.001221,-0.257812,0.007812,0.171875,9.908294,,,
12237106000,0.999268,-0.016296,0.034119,-0.000977,0.273438,-0.40625,-0.136719,9.928414,,,
12258164000,0.999268,-0.016541,0.033691,-0.000916,-0.195312,-0.285156,0.746094,9.949472,,,
12286559000,0.999329,-0.016846,0.03302,-0.000854,0.019531,-0.285156,0.707031,9.977867,,,
12296325000,0.999329,-0.016968,0.032837,-0.000854,0.171875,0.105469,-0.058594,9.987633,,,
12317004000,0.999329,-0.017151,0.032349,-0.000732,-0.179688,0.113281,0.058594,10.008312,,,
12346478000,0.999329,-0.017212,0.031799,-0.000854,-0.273438,0.230469,0.171875,10.037786,4.44,2.46,5.12
12362211000,0.999329,-0.017334,0.031616,-0.000854,-0.320312,-0.117188,-0.328125,10.053519,,,
12376877000,0.99939,-0.017334,0.03125,-0.000916,-0.472656,-0.078125,-0.058594,10.068185,,,
12396585000,0.99939,-0.017334,0.031067,-0.001038,-0.59375,0.265625,-0.136719,10.087893,,,
12426058000,0.99939,-0.017578,0.03064,-0.000977,-0.179688,0.007812,-0.058594,10.117366,,,
12441536000,0.99939,-0.017639,0.030518,-0.000916,-0.144531,0.046875,0.09375,10.132844,,,
12456685000,0.99939,-0.0177,0.030396,-0.000916,-0.144531,-0.03125,-0.058594,10.147993,,,
12476707000,0.99939,-0.0177,0.030212,-0.000793,-0.074219,-0.03125,0.09375,10.168015,,,
12496761000,0.99939,-0.017944,0.029968,-0.00061,0.308594,-0.070312,-0.097656,10.188069,,,
12525732000,0.99939,-0.018066,0.029541,-0.000366,0.21875,-0.0625,-0.136719,10.21704,,,
12535732000,0.99939,-0.018005,0.029236,-0.000183,0.027344,-0.136719,0.019531,10.22704,4.45,2.47,5.12
12566464000,0.999451,-0.018127,0.02832,0.00061,-0.097656,0.054688,-0.097656,10.257772,,,
12585276000,0.999451,-0.018494,0.027649,0.001404,-0.035156,0.511719,-0.058594,10.276584,,,
12595257000,0.999451,-0.018616,0.027649,0.001282,-0.496094,0.820312,0.9375,10.286565,,,
12625254000,0.999451,-0.018616,0.0271,0.001343,-1.164062,0.214844,0.085938,10.316562,,,
12645910000,0.999451,-0.018555,0.026978,0.001343,-0.78125,-0.015625,-0.027344,10.337218,,,
12655316000,0.999451,-0.018616,0.026917,0.001343,-0.894531,0.0625,0.011719,10.346624,,,
12676756000,0.999451,-0.018677,0.026917,0.001343,-0.824219,0.023438,-0.105469,10.368064,,,
12697800000,0.999451,-0.018738,0.026855,0.001343,-0.175781,0.023438,-0.066406,10.389108,,,
12716881000,0.999451,-0.018677,0.026855,0.001282,-0.097656,0.023438,-0.066406,10.408189,,,
12738067000,0.999451,-0.018677,0.026855,0.001343,-0.097656,0.023438,-0.027344,10.429375,4.44,2.5,5.12
12774698000,0.999451,-0.018677,0.026855,0.001343,-0.058594,0.023438,0.011719,10.466006,,,
12789749000,0.999451,-0.018738,0.026855,0.001282,-0.089844,-0.015625,-0.027344,10.481057,,,
12795622000,0.999451,-0.018738,0.026855,0.001282,-0.089844,0.023438,0.011719,10.48693,,,
12825440000,0.999451,-0.018738,0.026855,0.001282,-0.050781,-0.015625,0.050781,10.516748,,,
12841989000,0.999451,-0.018738,0.026855,0.001282,-0.089844,0.023438,0.011719,10.533297,,,
12856615000,0.999451,-0.018738,0.026855,0.001282,-0.050781,0.023438,-0.027344,10.547923,,,
12884815000,0.999451,-0.018738,0.026855,0.001343,-0.050781,0.015625,0.011719,10.576123,,,
12904747000,0.999451,-0.018799,0.026855,0.001343,-0.089844,0.015625,0.011719,10.596055,,,
12924153000,0.999451,-0.018799,0.026855,0.001282,-0.050781,0.015625,0.011719,10.615461,,,
12935181000,0.999451,-0.018738,0.026855,0.001343,-0.050781,0.015625,-0.027344,10.626489,4.45,2.47,5.12
12966146000,0.999451,-0.018799,0.026855,0.001343,-0.042969,0.015625,-0.027344,10.657454,,,
12985029000,0.999451,-0.018738,0.026855,0.001343,-0.082031,0.015625,0.011719,10.676337,,,
13011182000,0.999451,-0.018738,0.026855,0.001343,-0.042969,0.015625,-0.027344,10.70249,,,
13024214000,0.999451,-0.018738,0.026794,0.001343,0.011719,0.015625,0.003906,10.715522,,,
13044222000,0.999451,-0.018738,0.026794,0.001343,-0.027344,-0.023438,0.003906,10.73553,,,
13064433000,0.999451,-0.018738,0.026794,0.001343,-0.027344,0.015625,0.003906,10.755741,,,
13090968000,0.999451,-0.018738,0.026794,0.001343,-0.027344,0.015625,0.003906,10.782276,,,
13104300000,0.999451,-0.018677,0.026794,0.001343,0.011719,0.015625,0.003906,10.795608,,,
13124824000,0.999451,-0.018677,0.026794,0.001343,0.011719,0.015625,0.003906,10.816132,,,
13144026000,0.999451,-0.018677,0.026794,0.001343,0.011719,0.015625,0.003906,10.835334,4.43,2.46,5.12
13168001000,0.999451,-0.018616,0.026855,0.001282,-0.027344,-0.023438,0.003906,10.859309,,,
13184068000,0.999451,-0.018616,0.026855,0.001343,0.011719,-0.023438,0.042969,10.875376,,,
13203960000,0.999451,-0.018677,0.026855,0.001343,0.011719,-0.023438,0.003906,10.895268,,,
13225897000,0.999451,-0.018677,0.026855,0.001343,0.011719,0.015625,0.003906,10.917205,,,
13243803000,0.999451,-0.018677,0.026855,0.001343,-0.027344,-0.023438,0.003906,10.935111,,,
13263560000,0.999451,-0.018677,0.026855,0.001282,0.011719,0.015625,0.003906,10.954868,,,
13283571000,0.999451,-0.018677,0.026855,0.001343,0.011719,0.015625,0.003906,10.974879,,,
13303739000,0.999451,-0.018616,0.026855,0.001343,-0.019531,0.007812,-0.035156,10.995047,,,
13323828000,0.999451,-0.018677,0.026855,0.001343,-0.019531,-0.03125,0.003906,11.015136,,,
13343184000,0.999451,-0.018677,0.026794,0.001343,-0.019531,-0.03125,0.003906,11.034492,4.43,2.46,5.14
13363510000,0.999451,-0.018677,0.026794,0.001343,0.019531,0.007812,0.003906,11.054818,,,
13383272000,0.999451,-0.018677,0.026794,0.001343,-0.019531,0.007812,0.003906,11.07458,,,
13413121000,0.999451,-0.018738,0.026794,0.001343,0.019531,0.007812,0.003906,11.104429,,,
13424071000,0.999451,-0.018738,0.026794,0.001343,0.019531,0.007812,-0.035156,11.115379,,,
13442976000,0.999451,-0.018738,0.026794,0.001343,-0.019531,0.007812,0.003906,11.134284,,,
13463481000,0.999451,-0.018738,0.026794,0.001343,0.019531,0.007812,-0.027344,11.154789,,,
13493031000,0.999451,-0.018677,0.026794,0.001343,0.019531,-0.03125,-0.027344,11.184339,,,
13503155000,0.999451,-0.018677,0.026794,0.001343,-0.019531,0.007812,0.011719,11.194463,,,
13523160000,0.999451,-0.018677,0.026794,0.001343,0.019531,-0.03125,0.011719,11.214468,,,
13543223000,0.999451,-0.018677,0.026794,0.001343,-0.019531,0.007812,0.011719,11.234531,4.47,2.5,5.13
13563195000,0.999451,-0.018738,0.026794,0.001343,0.019531,0.007812,0.011719,11.254503,,,
13588463000,0.999451,-0.018738,0.026733,0.001343,-0.019531,0.015625,-0.027344,11.279771,,,
13602939000,0.999451,-0.018738,0.026733,0.001343,0.019531,-0.023438,-0.027344,11.294247,,,
13622638000,0.999451,-0.018738,0.026733,0.001404,0.019531,-0.023438,0.011719,11.313946,,,
13643038000,0.999451,-0.018738,0.026733,0.001404,0.019531,0.015625,0.011719,11.334346,,,
13667914000,0.999451,-0.018738,0.026733,0.001404,0.019531,0.015625,0.011719,11.359222,,,
13683343000,0.999451,-0.018738,0.026733,0.001404,0.019531,0.015625,0.011719,11.374651,,,
13702287000,0.999451,-0.018738,0.026733,0.001404,-0.019531,0.015625,0.011719,11.393595,,,
13728340000,0.999451,-0.018738,0.026733,0.001404,-0.019531,-0.023438,0.011719,11.419648,,,
13742165000,0.999451,-0.018738,0.026733,0.001404,0.019531,-0.023438,0.011719,11.433473,4.43,2.52,5.15
13762420000,0.999451,-0.018738,0.026733,0.001404,-0.019531,-0.023438,0.003906,11.453728,,,
13789388000,0.999451,-0.018738,0.026733,0.001404,0.019531,-0.023438,0.003906,11.480696,,,
13802518000,0.999451,-0.018677,0.026733,0.001404,0.019531,0.015625,0.003906,11.493826,,,
13826231000,0.999451,-0.018677,0.026733,0.001404,0.019531,0.015625,0.003906,11.517539,,,
13842133000,0.999451,-0.018677,0.026733,0.001404,0.019531,0.015625,0.003906,11.533441,,,
13862264000,0.999451,-0.018677,0.026733,0.001404,0.011719,0.015625,0.003906,11.553572,,,
13882827000,0.999451,-0.018738,0.026672,0.001404,-0.027344,-0.023438,0.003906,11.574135,,,
13907546000,0.999451,-0.018738,0.026733,0.001404,0.050781,-0.023438,-0.035156,11.598854,,,
13922114000,0.999451,-0.018677,0.026733,0.001404,0.011719,-0.023438,-0.035156,11.613422,,,
13942077000,0.999451,-0.018677,0.026733,0.001404,0.011719,0.015625,0.003906,11.633385,4.41,2.46,5.11
13971276000,0.999451,-0.018677,0.026733,0.001465,0.011719,-0.023438,0.003906,11.662584,,,
13991395000,0.999451,-0.018677,0.026733,0.001465,0.011719,0.015625,0.003906,11.682703,,,
14001641000,0.999451,-0.018677,0.026733,0.001465,0.011719,0.015625,-0.035156,11.692949,,,
14022649000,0.999451,-0.018677,0.026733,0.001465,-0.027344,0.015625,-0.035156,11.713957,,,
14041705000,0.999451,-0.018677,0.026733,0.001465,-0.027344,0.015625,0.011719,11.733013,,,
14062014000,0.999451,-0.018677,0.026733,0.001465,0.011719,-0.023438,-0.027344,11.753322,,,
14086884000,0.999451,-0.018677,0.026733,0.001465,0.011719,-0.023438,-0.027344,11.778192,,,
14101502000,0.999451,-0.018677,0.026733,0.001465,-0.027344,-0.023438,0.011719,11.79281,,,
14120966000,0.999451,-0.018677,0.026733,0.001465,0.011719,-0.023438,0.011719,11.812274,,,
14145924000,0.999451,-0.018677,0.026733,0.001465,0.011719,-0.023438,0.011719,11.837232,4.43,2.46,5.13
14161158000,0.999451,-0.018677,0.026733,0.001465,-0.027344,-0.023438,0.011719,11.852466,,,
14181184000,0.999451,-0.018677,0.026733,0.001465,0.011719,0.015625,0.011719,11.872492,,,
14211535000,0.999451,-0.018677,0.026733,0.001465,0.011719,-0.023438,0.011719,11.902843,,,
14220971000,0.999451,-0.018677,0.026733,0.001465,0.011719,-0.023438,-0.027344,11.912279,,,
14240554000,0.999451,-0.018677,0.026733,0.001465,0.011719,0.015625,0.011719,11.931862,,,
14261649000,0.999451,-0.018677,0.026733,0.001465,0.011719,0.015625,0.011719,11.952957,,,
14286405000,0.999451,-0.018677,0.026733,0.001465,0.011719,0.015625,0.050781,11.977713,,,
14300870000,0.999451,-0.018677,0.026733,0.001465,0.011719,-0.023438,0.011719,11.992178,,,
14320788000,0.999451,-0.018677,0.026733,0.001465,0.011719,0.015625,0.003906,12.012096,,,
14350399000,0.999451,-0.018677,0.026733,0.001465,-0.027344,-0.023438,-0.035156,12.041707,4.43,2.5,5.16
14367675000,0.999451,-0.018677,0.026733,0.001465,0.011719,0.015625,0.003906,12.058983,,,
14380456000,0.999451,-0.018677,0.026733,0.001465,0.011719,0.015625,-0.035156,12.071764,,,
14400041000,0.999451,-0.018677,0.026733,0.001465,0.011719,0.015625,0.003906,12.091349,,,
14420412000,0.999451,-0.018677,0.026733,0.001465,0.011719,-0.023438,-0.035156,12.11172,,,
14446360000,0.999451,-0.018677,0.026733,0.001465,-0.027344,0.015625,0.003906,12.137668,,,
14460466000,0.999451,-0.018677,0.026733,0.001465,0.011719,0.015625,0.003906,12.151774,,,
14481889000,0.999451,-0.018677,0.026733,0.001465,-0.027344,0.015625,0.003906,12.173197,,,
14502548000,0.999451,-0.018677,0.026733,0.001465,0.011719,0.015625,0.003906,12.193856,,,
14520165000,0.999451,-0.018677,0.026733,0.001465,-0.027344,0.015625,0.003906,12.211473,,,
14541513000,0.999451,-0.018677,0.026733,0.001465,0.011719,-0.023438,0.003906,12.232821,4.42,2.47,5.13
14559981000,0.999451,-0.018677,0.026733,0.001465,-0.027344,0.015625,0.003906,12.251289,,,
14579983000,0.999451,-0.018677,0.026733,0.001465,0.011719,-0.03125,0.042969,12.271291,,,
14600763000,0.999451,-0.018677,0.026733,0.001465,0.011719,0.007812,-0.035156,12.292071,,,
14626972000,0.999451,-0.018677,0.026733,0.001465,-0.027344,0.007812,0.003906,12.31828,,,
14639524000,0.999451,-0.018677,0.026733,0.001465,0.011719,0.007812,0.003906,12.330832,,,
14659336000,0.999451,-0.018677,0.026733,0.001465,0.011719,0.007812,0.003906,12.350644,,,
14679638000,0.999451,-0.018677,0.026733,0.001465,0.011719,-0.03125,0.003906,12.370946,,,
14700296000,0.999451,-0.018677,0.026733,0.001465,0.011719,0.007812,0.003906,12.391604,,,
14720993000,0.999451,-0.018677,0.026733,0.001465,0.011719,0.007812,0.003906,12.412301,,,
14739947000,0.999451,-0.018677,0.026733,0.001465,0.011719,-0.03125,0.003906,12.431255,4.44,2.48,5.14
14759297000,0.999451,-0.018677,0.026733,0.001465,0.011719,-0.03125,0.003906,12.450605,,,
14780657000,0.999451,-0.018677,0.026733,0.001465,-0.027344,0.007812,0.003906,12.471965,,,
14809709000,0.999451,-0.018677,0.026733,0.001465,0.011719,0.015625,-0.035156,12.501017,,,
14819051000,0.999451,-0.018677,0.026733,0.001465,0.011719,0.015625,-0.035156,12.510359,,,
14839053000,0.999451,-0.018677,0.026733,0.001465,0.011719,-0.023438,0.003906,12.530361,,,
14859393000,0.999451,-0.018677,0.026733,0.001465,0.011719,0.015625,0.003906,12.550701,,,
14880626000,0.999451,-0.018677,0.026733,0.001465,-0.027344,0.015625,0.003906,12.571934,,,
14898873000,0.999451,-0.018677,0.026733,0.001465,-0.027344,0.007812,0.042969,12.590181,,,
14919106000,0.999451,-0.018677,0.026733,0.001465,0.011719,0.007812,-0.035156,12.610414,,,
14938665000,0.999451,-0.018677,0.026733,0.001465,0.011719,0.007812,-0.035156,12.629973,4.46,2.47,5.11
14968804000,0.999451,-0.018677,0.026733,0.001465,0.011719,0.007812,0.003906,12.660112,,,
14978530000,0.999451,-0.018677,0.026733,0.001465,-0.027344,0.007812,-0.035156,12.669838,,,
14999538000,0.999451,-0.018677,0.026733,0.001465,0.011719,0.007812,-0.035156,12.690846,,,
15020383000,0.999451,-0.018677,0.026733,0.001465,0.011719,0.007812,0.003906,12.711691,,,
15043928000,0.999451,-0.018677,0.026733,0.001465,0.011719,0.007812,0.011719,12.735236,,,
15058445000,0.999451,-0.018677,0.026733,0.001465,-0.027344,0.007812,0.011719,12.749753,,,
15085581000,0.999451,-0.018677,0.026733,0.001465,0.011719,0.007812,0.011719,12.776889,,,
15098800000,0.999451,-0.018677,0.026733,0.001465,0.011719,-0.03125,0.011719,12.790108,,,
15120475000,0.999451,-0.018677,0.026733,0.001465,0.011719,0.007812,0.003906,12.811783,,,
15138082000,0.999451,-0.018677,0.026733,0.001465,0.011719,-0.03125,0.003906,12.82939,4.42,2.46,5.12
15158749000,0.999451,-0.018677,0.026733,0.001465,-0.027344,0.007812,0.003906,12.850057,,,
15178083000,0.999451,-0.018677,0.026733,0.001465,0.011719,-0.03125,0.003906,12.869391,,,
15208424000,0.999451,-0.018677,0.026733,0.001465,0.011719,-0.03125,0.003906,12.899732,,,
15225648000,0.999451,-0.018677,0.026733,0.001465,0.011719,0.007812,0.003906,12.916956,,,
15238086000,0.999451,-0.018677,0.026733,0.001465,-0.027344,0.007812,-0.035156,12.929394,,,
15258198000,0.999451,-0.018677,0.026733,0.001465,0.011719,-0.03125,0.003906,12.949506,,,
15288388000,0.999451,-0.018677,0.026733,0.001465,0.011719,-0.023438,0.003906,12.979696,,,
15298185000,0.999451,-0.018677,0.026733,0.001465,-0.027344,0.015625,0.003906,12.989493,,,
15320796000,0.999451,-0.018677,0.026733,0.001465,0.011719,0.015625,-0.035156,13.012104,,,
15338414000,0.999451,-0.018677,0.026733,0.001465,0.011719,-0.023438,-0.035156,13.029722,4.47,2.47,5.12
15367701000,0.999451,-0.018677,0.026733,0.001465,0.011719,0.015625,0.003906,13.059009,,,
15384688000,0.999451,-0.018677,0.026733,0.001465,0.050781,-0.023438,0.003906,13.075996,,,
15397723000,0.999451,-0.018677,0.026733,0.001465,0.011719,0.015625,0.003906,13.089031,,,
15418302000,0.999451,-0.018677,0.026733,0.001465,0.011719,-0.023438,0.003906,13.10961,,,
15447233000,0.999451,-0.018677,0.026733,0.001465,0.011719,0.015625,0.003906,13.138541,,,
15457747000,0.999451,-0.018677,0.026733,0.001465,0.011719,0.015625,-0.035156,13.149055,,,
15487315000,0.999451,-0.018677,0.026733,0.001465,-0.027344,-0.023438,0.003906,13.178623,,,
15497499000,0.999451,-0.018677,0.026733,0.001465,-0.027344,0.015625,0.003906,13.188807,,,
15517936000,0.999451,-0.018677,0.026733,0.001465,-0.027344,0.054688,-0.035156,13.209244,,,
15537156000,0.999451,-0.018677,0.026733,0.001465,-0.027344,-0.023438,0.042969,13.228464,,,
15557391000,0.999451,-0.018677,0.026733,0.001465,0.011719,0.015625,0.003906,13.248699,4.44,2.48,5.11
15586831000,0.999451,-0.018677,0.026672,0.001465,1.34375,-0.0625,0.042969,13.278139,,,
15597474000,0.999451,-0.018677,0.02655,0.001526,1.25,-0.023438,0.003906,13.288782,,,
15617197000,0.999451,-0.018677,0.026245,0.001587,1.128906,0.207031,-0.066406,13.308505,,,
15647409000,0.999512,-0.018738,0.025818,0.001831,1.195312,0.128906,0.011719,13.338717,,,
15657450000,0.999512,-0.018738,0.025574,0.001892,0.78125,-0.023438,-0.027344,13.348758,,,
15677823000,0.999512,-0.018799,0.024719,0.001831,0.816406,-0.015625,-0.066406,13.369131,,,
15697104000,0.999573,-0.018738,0.02301,0.001831,0.097656,0.097656,-0.527344,13.388412,,,
15717716000,0.999695,-0.019287,0.016968,0.001831,0.378906,0.144531,-1.75,13.409024,,,
15738002000,0.999817,-0.013977,0.013306,0.002014,0.421875,-0.078125,-4.539062,13.42931,,,
15763626000,0.999695,-0.019165,0.014404,0.001709,-0.605469,2.265625,3.496094,13.454934,4.41,2.56,5.15
15777303000,0.999695,-0.019226,0.013672,0.00177,-1.5625,-1.410156,5.679688,13.468611,,,
15797404000,0.999756,-0.018799,0.013245,0.001892,-0.675781,-1.125,-1.332031,13.488712,,,
15818179000,0.999756,-0.01886,0.013245,0.001892,0.726562,0.207031,0.433594,13.509487,,,
15846071000,0.999756,-0.01886,0.013306,0.001831,-0.730469,-0.0625,0.011719,13.537379,,,
15856389000,0.999756,-0.01886,0.013306,0.001831,-0.574219,-0.023438,0.050781,13.547697,,,
15877532000,0.999756,-0.01886,0.013306,0.001709,-0.382812,-0.023438,0.078125,13.56884,,,
15897081000,0.999756,-0.018738,0.013306,0.001709,-0.851562,0.054688,0.078125,13.588389,,,
15925871000,0.999756,-0.018677,0.013306,0.001709,-0.851562,-0.292969,-0.1875,13.617179,,,
15936948000,0.999756,-0.018799,0.013428,0.001648,-0.890625,0.207031,0.195312,13.628256,,,
15957102000,0.999756,-0.01886,0.013489,0.001526,-1.011719,-0.101562,-0.1875,13.64841,4.48,2.61,5.17
15977066000,0.999756,-0.018677,0.013367,0.001465,-1.28125,-0.0625,-0.074219,13.668374,,,
16007167000,0.999756,-0.018677,0.013428,0.001343,-1.011719,-0.0625,0.003906,13.698475,,,
16016345000,0.999756,-0.018738,0.013489,0.001404,-0.667969,-0.023438,-0.074219,13.707653,,,
16039180000,0.999756,-0.018677,0.013428,0.001709,-0.667969,0.015625,-0.003906,13.730488,,,
16065988000,0.999756,-0.018738,0.013489,0.001648,-0.78125,-0.253906,-0.042969,13.757296,,,
16075976000,0.999756,-0.018738,0.013489,0.001709,-0.667969,-0.0625,-0.003906,13.767284,,,
16097034000,0.999756,-0.018738,0.01355,0.001709,-0.429688,-0.023438,-0.003906,13.788342,,,
16117403000,0.999756,-0.018738,0.013489,0.001709,-0.351562,0.015625,-0.042969,13.808711,,,
16136649000,0.999756,-0.018677,0.013489,0.001709,-0.160156,-0.023438,-0.003906,13.827957,,,
16156676000,0.999756,-0.018677,0.013489,0.00177,0.105469,-0.023438,-0.003906,13.847984,4.46,2.65,5.16
16185677000,0.999756,-0.018738,0.013428,0.00177,0.03125,0.015625,0.035156,13.876985,,,
16201794000,0.999756,-0.018738,0.013489,0.00177,0.03125,0.015625,-0.003906,13.893102,,,
16216274000,0.999756,-0.018738,0.013489,0.001709,-0.160156,-0.023438,-0.003906,13.907582,,,
16236654000,0.999756,-0.018616,0.01355,0.001709,-0.277344,0.015625,0.035156,13.927962,,,
16265061000,0.999756,-0.018616,0.013611,0.001709,-0.191406,0.015625,0.035156,13.956369,,,
16275264000,0.999756,-0.018616,0.013611,0.001648,-0.460938,0.015625,0.035156,13.966572,,,
16304919000,0.999756,-0.018616,0.01355,0.001709,-0.804688,-0.253906,-0.042969,13.996227,,,
16315330000,0.999756,-0.018555,0.01355,0.001648,-0.804688,0.167969,-0.042969,14.006638,,,
16336479000,0.999756,-0.018616,0.01355,0.001709,-0.613281,-0.023438,-0.050781,14.027787,,,
16356776000,0.999756,-0.018616,0.013611,0.001709,-0.375,-0.023438,-0.050781,14.048084,4.46,2.73,5.2
16385064000,0.999756,-0.018616,0.01355,0.001709,-0.144531,0.015625,-0.011719,14.076372,,,
16395299000,0.999756,-0.018677,0.01355,0.001709,-0.109375,-0.023438,-0.050781,14.086607,,,
16425154000,0.999756,-0.018677,0.013611,0.001648,-0.367188,0.015625,0.027344,14.116462,,,
16446765000,0.999756,-0.018677,0.013611,0.001648,-0.253906,-0.023438,0.027344,14.138073,,,
16455542000,0.999756,-0.018677,0.013611,0.001648,-0.367188,-0.023438,-0.050781,14.14685,,,
16484610000,0.999756,-0.018677,0.013611,0.001709,-0.136719,0.015625,-0.011719,14.175918,,,
16504372000,0.999756,-0.018677,0.013611,0.001648,-0.128906,-0.023438,-0.011719,14.19568,,,
16524521000,0.999756,-0.018738,0.013611,0.001648,-0.246094,-0.0625,-0.011719,14.215829,,,
16535206000,0.999756,-0.018677,0.013611,0.001648,-0.167969,0.015625,0.027344,14.226514,,,
16564039000,0.999756,-0.018616,0.013611,0.001648,-0.054688,-0.023438,0.027344,14.255347,4.48,2.75,5.19
16584760000,0.999756,-0.018616,0.013611,0.001648,-0.007812,0.015625,0.027344,14.276068,,,
16604317000,0.999756,-0.018616,0.013611,0.001587,-0.199219,-0.0625,-0.011719,14.295625,,,
16615289000,0.999756,-0.018616,0.013672,0.001587,-0.277344,0.128906,-0.011719,14.306597,,,
16644349000,0.999756,-0.018616,0.013733,0.001587,-0.113281,0.015625,0.0625,14.335657,,,
16668135000,0.999756,-0.018555,0.013733,0.001587,-0.144531,-0.023438,-0.011719,14.359443,,,
16684400000,0.999756,-0.018616,0.013672,0.001587,-0.335938,0.015625,-0.011719,14.375708,,,
16704418000,0.999756,-0.018616,0.013733,0.001587,-0.714844,-0.023438,0.085938,14.395726,,,
16724532000,0.999756,-0.018555,0.013794,0.001587,-0.480469,0.054688,0.011719,14.41584,,,
16735502000,0.999756,-0.018616,0.013733,0.001587,-0.578125,-0.023438,-0.027344,14.42681,,,
16765487000,0.999756,-0.018616,0.013733,0.001526,-0.019531,-0.023438,0.042969,14.456795,4.44,2.79,5.17
16788511000,0.999756,-0.018555,0.013672,0.001526,-0.039062,0.015625,0.042969,14.479819,,,
16804480000,0.999756,-0.018616,0.013672,0.001526,0.003906,-0.023438,-0.035156,14.495788,,,
16824012000,0.999756,-0.018616,0.013672,0.001526,-0.023438,-0.023438,0.011719,14.51532,,,
16835329000,0.999756,-0.018616,0.013672,0.001526,0.011719,0.015625,0.011719,14.526637,,,
16863592000,0.999756,-0.018616,0.013672,0.001526,0.019531,0.015625,0.003906,14.5549,,,
16883436000,0.999756,-0.018555,0.013672,0.001526,0.019531,0.015625,0.011719,14.574744,,,
16903956000,0.999756,-0.018555,0.013611,0.001526,0.027344,0.015625,0.011719,14.595264,,,
16923533000,0.999756,-0.018555,0.013611,0.001526,-0.007812,0.015625,-0.035156,14.614841,,,
16943695000,0.999756,-0.018555,0.013611,0.001526,0.066406,-0.023438,0.003906,14.635003,,,
16967420000,0.999756,-0.018555,0.013611,0.001587,0.019531,-0.023438,0.042969,14.658728,4.47,2.49,5.16
16983804000,0.999756,-0.018555,0.013672,0.001587,0.019531,0.015625,0.042969,14.675112,,,
17003072000,0.999756,-0.018555,0.013672,0.001587,0.019531,-0.023438,0.003906,14.69438,,,
17024196000,0.999756,-0.018555,0.013672,0.001587,0.019531,-0.023438,0.003906,14.715504,,,
17049592000,0.999756,-0.018555,0.013672,0.001587,0.019531,-0.023438,-0.035156,14.7409,,,
17063311000,0.999756,-0.018494,0.013672,0.001587,0.019531,0.015625,0.003906,14.754619,,,
17082787000,0.999756,-0.018494,0.013672,0.001587,0.050781,0.015625,0.003906,14.774095,,,
17103401000,0.999756,-0.018494,0.013672,0.001587,0.011719,-0.023438,0.003906,14.794709,,,
17122763000,0.999756,-0.018494,0.013672,0.001587,0.011719,0.015625,0.003906,14.814071,,,
17143572000,0.999756,-0.018494,0.013672,0.001587,0.011719,-0.023438,0.003906,14.83488,,,
17173075000,0.999756,-0.018494,0.013672,0.001587,0.011719,-0.023438,0.003906,14.864383,4.44,2.56,5.17
17188909000,0.999756,-0.018494,0.013672,0.001587,0.003906,0.015625,0.003906,14.880217,,,
17202765000,0.999756,-0.018433,0.013733,0.001587,0.003906,0.007812,0.003906,14.894073,,,
17223214000,0.999756,-0.018433,0.013672,0.001587,0.003906,-0.03125,0.003906,14.914522,,,
17248030000,0.999756,-0.018433,0.013672,0.001587,0.003906,-0.03125,0.003906,14.939338,,,
17262259000,0.999756,-0.018433,0.013672,0.001587,0.003906,0.007812,0.003906,14.953567,,,
17282333000,0.999756,-0.018433,0.013733,0.001587,0.003906,-0.03125,0.003906,14.973641,,,
17302250000,0.999756,-0.018372,0.013672,0.001587,0.003906,0.015625,0.003906,14.993558,,,
17323307000,0.999756,-0.018372,0.013672,0.001587,0.003906,-0.023438,0.042969,15.014615,,,
17342514000,0.999756,-0.018372,0.013672,0.001587,0.003906,0.015625,0.003906,15.033822,,,
17362862000,0.999756,-0.018372,0.013672,0.001587,0.003906,-0.023438,0.042969,15.05417,4.47,2.6,5.18
17382162000,0.999756,-0.018372,0.013672,0.001648,-0.039062,-0.023438,0.042969,15.07347,,,
17412462000,0.999756,-0.018372,0.013672,0.001648,-0.003906,-0.023438,0.003906,15.10377,,,
17421948000,0.999756,-0.018372,0.013672,0.001648,-0.003906,-0.023438,0.003906,15.113256,,,
17442231000,0.999756,-0.018372,0.013672,0.001587,-0.03125,-0.023438,0.003906,15.133539,,,
17461988000,0.999756,-0.018372,0.013733,0.001648,0.003906,0.015625,0.042969,15.153296,,,
17492030000,0.999756,-0.018372,0.013733,0.001648,0.003906,-0.023438,0.003906,15.183338,,,
17508112000,0.999756,-0.018433,0.013733,0.001587,0.003906,-0.023438,0.003906,15.19942,,,
17521759000,0.999756,-0.018433,0.013733,0.001587,0.003906,-0.023438,0.003906,15.213067,,,
17541987000,0.999756,-0.018433,0.013733,0.001648,0.003906,0.015625,0.003906,15.233295,,,
17568019000,0.999756,-0.018372,0.013733,0.001648,0.003906,-0.023438,0.003906,15.259327,4.46,2.51,5.18
17581318000,0.999756,-0.018372,0.013733,0.001648,0.003906,0.015625,0.003906,15.272626,,,
17601408000,0.999756,-0.018433,0.013733,0.001648,-0.03125,-0.023438,0.003906,15.292716,,,
17626037000,0.999756,-0.018372,0.013733,0.001648,0.003906,-0.023438,0.042969,15.317345,,,
17641908000,0.999756,-0.018372,0.013672,0.001648,0.003906,0.015625,0.003906,15.333216,,,
17662341000,0.999756,-0.018372,0.013672,0.001648,0.003906,0.015625,0.003906,15.353649,,,
17691358000,0.999756,-0.018372,0.013733,0.001648,-0.003906,0.015625,0.003906,15.382666,,,
17701783000,0.999756,-0.018372,0.013672,0.001648,-0.003906,0.015625,0.003906,15.393091,,,
17721149000,0.999756,-0.018372,0.013672,0.001648,-0.003906,0.015625,0.003906,15.412457,,,
17741636000,0.999756,-0.018372,0.013733,0.001648,-0.003906,0.015625,0.003906,15.432944,,,
17766791000,0.999756,-0.018372,0.013733,0.001648,0.035156,-0.023438,0.003906,15.458099,4.45,2.54,5.16
17781381000,0.999756,-0.018372,0.013733,0.001648,-0.003906,-0.023438,0.003906,15.472689,,,
17800866000,0.999756,-0.018372,0.013733,0.001648,-0.003906,-0.023438,0.003906,15.492174,,,
17831051000,0.999756,-0.018311,0.013733,0.001648,-0.003906,-0.023438,0.003906,15.522359,,,
17847376000,0.999756,-0.018311,0.013733,0.001648,-0.039062,0.015625,0.003906,15.538684,,,
17860680000,0.999756,-0.018372,0.013733,0.001648,-0.003906,0.015625,0.003906,15.551988,,,
17882470000,0.999756,-0.018372,0.013733,0.001648,-0.003906,-0.023438,0.042969,15.573778,,,
17904039000,0.999756,-0.018372,0.013733,0.001648,-0.003906,-0.023438,0.003906,15.595347,,,
17920452000,0.999756,-0.018372,0.013733,0.001648,-0.003906,0.015625,0.003906,15.61176,,,
17940478000,0.999756,-0.018372,0.013733,0.001648,-0.003906,-0.023438,-0.035156,15.631786,,,
17961975000,0.999756,-0.018311,0.013733,0.001648,-0.003906,-0.023438,0.003906,15.653283,4.45,2.77,5.19
17989087000,0.999756,-0.018311,0.013733,0.001648,-0.003906,-0.023438,0.003906,15.680395,,,
18000638000,0.999756,-0.018311,0.013733,0.001648,0.035156,-0.015625,0.003906,15.691946,,,
18020331000,0.999756,-0.018311,0.013733,0.001648,-0.039062,0.023438,0.003906,15.711639,,,
18050195000,0.999756,-0.018311,0.013733,0.001648,-0.003906,-0.015625,-0.035156,15.741503,,,
18060087000,0.999756,-0.018311,0.013733,0.001648,-0.003906,0.023438,0.003906,15.751395,,,
18080701000,0.999756,-0.018311,0.013733,0.001648,-0.003906,0.023438,0.003906,15.772009,,,
18110335000,0.999756,-0.018311,0.013733,0.001648,-0.003906,-0.015625,0.003906,15.801643,,,
18119985000,0.999756,-0.018311,0.013733,0.001648,0.035156,0.023438,0.003906,15.811293,,,
18139762000,0.999756,-0.018311,0.013733,0.001648,-0.003906,-0.015625,0.003906,15.83107,,,
18160145000,0.999756,-0.018311,0.013733,0.001648,-0.003906,-0.015625,0.003906,15.851453,4.46,2.78,5.18
18190059000,0.999756,-0.018311,0.013733,0.001648,-0.003906,-0.015625,0.003906,15.881367,,,
18199682000,0.999756,-0.018311,0.013733,0.001648,-0.003906,0.023438,0.042969,15.89099,,,
18219620000,0.999756,-0.018311,0.013733,0.001648,-0.003906,-0.015625,0.003906,15.910928,,,
18240997000,0.999756,-0.018311,0.013733,0.001648,-0.003906,-0.015625,0.003906,15.932305,,,
18263663000,0.999756,-0.018311,0.013733,0.001648,-0.003906,-0.015625,0.003906,15.954971,,,
18279487000,0.999756,-0.018311,0.013733,0.001648,-0.003906,0.023438,0.003906,15.970795,,,
18299793000,0.999756,-0.018311,0.013733,0.001648,-0.003906,-0.015625,0.003906,15.991101,,,
18319685000,0.999756,-0.018311,0.013733,0.001648,-0.039062,-0.015625,-0.035156,16.010993,,,
18345475000,0.999756,-0.018311,0.013733,0.001648,-0.003906,-0.015625,0.003906,16.036783,,,
18359254000,0.999756,-0.018311,0.013733,0.001648,-0.003906,0.023438,0.003906,16.050562,4.47,2.76,5.18
18379627000,0.999756,-0.018311,0.013733,0.001648,-0.003906,0.023438,0.003906,16.070935,,,
18409854000,0.999756,-0.018311,0.013733,0.001648,-0.003906,-0.015625,-0.035156,16.101162,,,
18419131000,0.999756,-0.018311,0.013733,0.001648,-0.003906,-0.015625,0.042969,16.110439,,,
18439026000,0.999756,-0.018311,0.013733,0.001648,-0.003906,-0.015625,0.042969,16.130334,,,
18459297000,0.999756,-0.018311,0.013733,0.001648,-0.003906,-0.015625,0.003906,16.150605,,,
18489501000,0.999756,-0.018311,0.013733,0.001648,-0.003906,-0.015625,0.003906,16.180809,,,
18504934000,0.999756,-0.018311,0.013733,0.001648,-0.003906,-0.015625,0.003906,16.196242,,,
18518953000,0.999756,-0.018311,0.013733,0.001648,-0.003906,0.023438,0.003906,16.210261,,,
18538653000,0.999756,-0.018311,0.013733,0.001648,-0.003906,-0.015625,-0.035156,16.229961,,,
18560376000,0.999756,-0.018311,0.013733,0.001648,-0.003906,-0.015625,-0.035156,16.251684,4.46,2.76,5.19
18584989000,0.999756,-0.018311,0.013733,0.001648,-0.003906,0.023438,0.003906,16.276297,,,
18601294000,0.999756,-0.018311,0.013733,0.001648,-0.003906,-0.015625,0.003906,16.292602,,,
18618503000,0.999756,-0.018311,0.013733,0.001648,-0.003906,-0.015625,0.003906,16.309811,,,
18639962000,0.999756,-0.018311,0.013733,0.001648,-0.003906,-0.015625,0.003906,16.33127,,,
18664264000,0.999756,-0.018311,0.013733,0.001648,-0.003906,-0.015625,0.003906,16.355572,,,
18678623000,0.999756,-0.018311,0.013733,0.001648,-0.003906,0.023438,0.003906,16.369931,,,
18700885000,0.999756,-0.018311,0.013733,0.001648,-0.003906,-0.015625,0.003906,16.392193,,,
18718202000,0.999756,-0.018311,0.013733,0.001648,-0.003906,-0.015625,0.003906,16.40951,,,
18738795000,0.999756,-0.018311,0.013733,0.001648,-0.003906,0.023438,0.042969,16.430103,,,
18758162000,0.999756,-0.018311,0.013733,0.001648,-0.003906,-0.015625,0.003906,16.44947,4.49,2.78,5.18
18788634000,0.999756,-0.018311,0.013733,0.001648,-0.003906,0.023438,0.042969,16.479942,,,
18797930000,0.999756,-0.018311,0.013733,0.001648,-0.003906,-0.015625,-0.035156,16.489238,,,
18818099000,0.999756,-0.018311,0.013733,0.001648,-0.003906,0.023438,-0.035156,16.509407,,,
18839238000,0.999756,-0.018311,0.013733,0.001648,0.035156,-0.015625,0.003906,16.530546,,,
18863004000,0.999756,-0.018311,0.013733,0.001648,-0.003906,0.023438,0.003906,16.554312,,,
18877700000,0.999756,-0.018311,0.013733,0.001648,-0.003906,0.023438,0.003906,16.569008,,,
18908303000,0.999756,-0.018311,0.013733,0.001648,-0.003906,0.023438,0.003906,16.599611,,,
18917862000,0.999756,-0.018311,0.013733,0.001648,-0.003906,0.023438,0.003906,16.60917,,,
18938163000,0.999756,-0.018311,0.013733,0.001648,-0.003906,0.023438,0.003906,16.629471,,,
18968104000,0.999756,-0.018311,0.013733,0.001648,-0.003906,-0.015625,0.003906,16.659412,4.48,2.75,5.17
18977831000,0.999756,-0.018311,0.013733,0.001648,-0.003906,-0.015625,0.042969,16.669139,,,
18997818000,0.999756,-0.018311,0.013733,0.001648,-0.003906,-0.015625,0.042969,16.689126,,,
19017903000,0.999756,-0.018311,0.013733,0.001648,-0.003906,0.023438,0.003906,16.709211,,,
19047776000,0.999756,-0.018311,0.013733,0.001648,-0.003906,0.015625,0.003906,16.739084,,,
19057816000,0.999756,-0.018311,0.013733,0.001648,-0.003906,-0.023438,-0.035156,16.749124,,,
19077590000,0.999756,-0.018311,0.013733,0.001648,-0.003906,0.015625,0.003906,16.768898,,,
19098055000,0.999756,-0.018311,0.013733,0.001648,-0.003906,0.015625,-0.035156,16.789363,,,
19117513000,0.999756,-0.018311,0.013733,0.001648,-0.003906,-0.023438,0.003906,16.808821,,,
19137000000,0.999756,-0.018311,0.013733,0.001648,-0.003906,-0.023438,0.042969,16.828308,,,
19157740000,0.999756,-0.018311,0.013733,0.001648,-0.003906,0.015625,0.003906,16.849048,4.47,2.6,5.18
19178952000,0.999756,-0.018311,0.013733,0.001648,-0.039062,0.015625,-0.035156,16.87026,,,
19208578000,0.999756,-0.018311,0.013733,0.001648,-0.003906,-0.023438,-0.035156,16.899886,,,
19217612000,0.999756,-0.018311,0.013733,0.001648,-0.003906,-0.023438,0.042969,16.90892,,,
19237490000,0.999756,-0.018311,0.013733,0.001648,-0.003906,0.023438,0.003906,16.928798,,,
19257968000,0.999756,-0.018311,0.013733,0.001648,0.1875,-0.015625,0.003906,16.949276,,,
19286984000,0.999756,-0.01825,0.013672,0.00177,0.960938,-0.015625,0.003906,16.978292,,,
19296947000,0.999756,-0.01825,0.013611,0.00177,0.902344,-0.09375,0.042969,16.988255,,,
19317990000,0.999756,-0.018311,0.013672,0.001831,1.160156,0.097656,0.15625,17.009298,,,
19336926000,0.999756,-0.018066,0.013733,0.00177,0.683594,0.023438,0.070312,17.028234,,,
19366540000,0.999756,-0.018188,0.013855,0.001709,0.300781,-0.175781,-0.042969,17.057848,4.49,2.58,5.21
19376676000,0.999756,-0.018127,0.013916,0.001709,-0.261719,0.054688,-0.003906,17.067984,,,
19397615000,0.999756,-0.018005,0.013855,0.001709,-0.84375,0.054688,0.035156,17.088923,,,
19426997000,0.999756,-0.018005,0.013977,0.001709,-0.699219,0.015625,0.070312,17.118305,,,
19436163000,0.999756,-0.017944,0.013977,0.001709,-0.582031,0.054688,0.035156,17.127471,,,
19463528000,0.999756,-0.017944,0.014038,0.00177,-0.46875,0.046875,0.070312,17.154836,,,
19476701000,0.999756,-0.018066,0.014099,0.001709,-0.542969,0.015625,-0.003906,17.168009,,,
19497057000,0.999756,-0.018005,0.014038,0.00177,-0.046875,-0.023438,-0.042969,17.188365,,,
19526913000,0.999756,-0.018066,0.014038,0.001709,-0.121094,0.015625,-0.121094,17.218221,,,
19536409000,0.999756,-0.018127,0.014099,0.001709,0.03125,0.015625,0.035156,17.227717,,,
19565927000,0.999756,-0.018127,0.01416,0.001648,-0.128906,-0.023438,-0.160156,17.257235,4.5,2.1,5.2
19576247000,0.999756,-0.018066,0.014221,0.001648,-0.207031,-0.023438,-0.042969,17.267555,,,
19597132000,0.999756,-0.017944,0.014221,0.001648,-0.4375,0.015625,0.070312,17.28844,,,
19617238000,0.999756,-0.018066,0.014221,0.001648,-0.207031,-0.070312,-0.082031,17.308546,,,
19646153000,0.999756,-0.017822,0.014282,0.001587,-0.589844,-0.03125,-0.003906,17.337461,,,
19656040000,0.999756,-0.017822,0.014282,0.001648,-0.78125,-0.03125,-0.042969,17.347348,,,
19676677000,0.999756,-0.017822,0.014282,0.001648,-0.742188,0.046875,-0.234375,17.367985,,,
19697384000,0.999756,-0.017883,0.014282,0.001648,-1.089844,0.046875,-0.042969,17.388692,,,
19725674000,0.999756,-0.017944,0.014282,0.001648,-0.972656,-0.03125,-0.160156,17.416982,,,
19735178000,0.999756,-0.017944,0.014282,0.001648,-0.898438,0.046875,0.035156,17.426486,,,
19766108000,0.999756,-0.017822,0.014282,0.001648,-0.628906,0.046875,-0.042969,17.457416,4.48,2.16,5.23
19782297000,0.999756,-0.017761,0.014282,0.001709,-0.398438,-0.03125,-0.003906,17.473605,,,
19796668000,0.999756,-0.0177,0.014282,0.001648,0.0625,0.007812,-0.003906,17.487976,,,
19816684000,0.999756,-0.017822,0.014282,0.001709,0.136719,0.007812,0.035156,17.507992,,,
19836714000,0.999756,-0.017822,0.014282,0.001648,0.335938,-0.03125,-0.003906,17.528022,,,
19865299000,0.999756,-0.017761,0.014404,0.001648,-0.382812,-0.03125,0.070312,17.556607,,,
19875294000,0.999756,-0.017761,0.014465,0.001648,-0.613281,-0.03125,-0.042969,17.566602,,,
19897477000,0.999756,-0.017883,0.014465,0.001648,-0.726562,0.007812,-0.003906,17.588785,,,
19916712000,0.999756,-0.017822,0.014465,0.001709,-0.574219,-0.03125,0.035156,17.60802,,,
19945378000,0.999756,-0.017822,0.014465,0.001709,-0.183594,0.007812,-0.042969,17.636686,,,
19960693000,0.999756,-0.017883,0.014465,0.001709,-0.183594,-0.03125,0.070312,17.652001,4.45,2.2,5.21
19976676000,0.999756,-0.017822,0.014465,0.001648,-0.183594,0.007812,-0.003906,17.667984,,,
19996617000,0.999756,-0.017761,0.014526,0.001648,-0.414062,-0.03125,-0.042969,17.687925,,,
20025204000,0.999756,-0.017761,0.014465,0.001648,-0.867188,0.007812,0.035156,17.716512,,,
20045079000,0.999756,-0.0177,0.014465,0.001648,-0.253906,0.007812,-0.003906,17.736387,,,
20055350000,0.999756,-0.0177,0.014465,0.001648,-0.289062,0.007812,-0.003906,17.746658,,,
20084860000,0.999756,-0.0177,0.014465,0.001709,-0.246094,0.007812,-0.003906,17.776168,,,
20095275000,0.999756,-0.0177,0.014526,0.001709,-0.246094,0.007812,-0.003906,17.786583,,,
20126631000,0.999756,-0.0177,0.014526,0.001709,-0.246094,0.007812,-0.003906,17.817939,,,
20145239000,0.999756,-0.0177,0.014526,0.001709,-0.238281,0.007812,-0.003906,17.836547,,,
20164559000,0.999756,-0.0177,0.014526,0.001709,-0.238281,-0.03125,-0.003906,17.855867,4.49,2.2,5.21
20175281000,0.999756,-0.0177,0.014526,0.001709,-0.238281,0.007812,0.035156,17.866589,,,
20206725000,0.999756,-0.0177,0.014526,0.001709,0.574219,0.007812,0.035156,17.898033,,,
20224226000,0.999756,-0.0177,0.014587,0.001709,0.804688,-0.03125,-0.003906,17.915534,,,
20244130000,0.999756,-0.017761,0.014587,0.001709,0.421875,0.007812,-0.042969,17.935438,,,
20268764000,0.999756,-0.0177,0.014526,0.001648,0.191406,0.007812,-0.042969,17.960072,,,
20284264000,0.999756,-0.017639,0.014587,0.001648,-0.652344,0.046875,-0.082031,17.975572,,,
20305499000,0.999756,-0.017578,0.014587,0.001587,-1.253906,0.007812,-0.042969,17.996807,,,
20324634000,0.999756,-0.017639,0.014587,0.001587,-1.445312,-0.039062,-0.082031,18.015942,,,
20344154000,0.999756,-0.017639,0.014526,0.001587,-0.144531,0.007812,-0.003906,18.035462,,,
20365037000,0.999756,-0.017639,0.014526,0.001587,-0.25,-0.03125,-0.003906,18.056345,4.53,2.24,5.21
20384219000,0.999756,-0.017639,0.014526,0.001587,-0.214844,0.007812,-0.003906,18.075527,,,
20404763000,0.999756,-0.017639,0.014526,0.001587,-0.25,0.007812,-0.003906,18.096071,,,
20424015000,0.999756,-0.017639,0.014465,0.001587,-0.207031,0.007812,-0.003906,18.115323,,,
20449168000,0.999756,-0.017639,0.014465,0.001587,-0.242188,0.007812,-0.003906,18.140476,,,
20463930000,0.999756,-0.017639,0.014465,0.001587,-0.242188,0.007812,-0.003906,18.155238,,,
20483754000,0.999756,-0.0177,0.014465,0.001587,-0.234375,0.007812,-0.011719,18.175062,,,
20503818000,0.999756,-0.0177,0.014526,0.001587,-0.199219,0.007812,-0.011719,18.195126,,,
20526861000,0.999756,-0.0177,0.014526,0.001526,-0.234375,0.007812,-0.011719,18.218169,,,
20543645000,0.999756,-0.0177,0.014526,0.001587,-0.234375,0.007812,-0.011719,18.234953,,,
20563250000,0.999756,-0.0177,0.014526,0.001587,-0.226562,0.007812,-0.050781,18.254558,4.44,2.26,5.23
20584517000,0.999756,-0.017639,0.014526,0.001526,-0.226562,-0.03125,-0.042969,18.275825,,,
20607160000,0.999756,-0.0177,0.014526,0.001526,-0.191406,0.007812,-0.042969,18.298468,,,
20623730000,0.999756,-0.0177,0.014526,0.001526,-0.21875,0.007812,-0.042969,18.315038,,,
20648955000,0.999756,-0.0177,0.014526,0.001526,-0.21875,-0.03125,-0.003906,18.340263,,,
20663270000,0.999756,-0.017639,0.014587,0.001587,-0.21875,0.007812,0.035156,18.354578,,,
20683452000,0.999756,-0.017639,0.014526,0.001587,-0.015625,0.007812,0.003906,18.37476,,,
20703993000,0.999756,-0.017639,0.014526,0.001587,-0.015625,-0.03125,0.003906,18.395301,,,
20723623000,0.999756,-0.017639,0.014526,0.001587,-0.015625,0.007812,0.003906,18.414931,,,
20743797000,0.999756,-0.017639,0.014526,0.001526,0.019531,0.007812,0.003906,18.435105,,,
20762966000,0.999756,-0.017639,0.014526,0.001526,0.019531,0.007812,0.003906,18.454274,4.48,2.24,5.23
20783381000,0.999756,-0.0177,0.014526,0.001526,0.019531,0.007812,0.003906,18.474689,,,
20809608000,0.999756,-0.0177,0.014526,0.001587,0.019531,0.007812,0.003906,18.500916,,,
20823417000,0.999756,-0.0177,0.014526,0.001587,-0.015625,0.007812,0.003906,18.514725,,,
20843855000,0.999756,-0.017639,0.014526,0.001587,-0.015625,-0.03125,0.003906,18.535163,,,
20872529000,0.999756,-0.017639,0.014526,0.001526,0.019531,-0.03125,0.003906,18.563837,,,
20890386000,0.999756,-0.017639,0.014526,0.001526,-0.015625,0.007812,-0.035156,18.581694,,,
20902578000,0.999756,-0.017639,0.014526,0.001526,-0.015625,-0.03125,0.003906,18.593886,,,
20928333000,0.999756,-0.017639,0.014526,0.001526,-0.015625,0.007812,0.003906,18.619641,,,
20942375000,0.999756,-0.017639,0.014526,0.001526,0.019531,0.007812,0.003906,18.633683,,,
20963030000,0.999756,-0.017639,0.014526,0.001526,-0.015625,0.007812,-0.035156,18.654338,4.49,2.22,5.21
20989856000,0.999756,-0.017639,0.014465,0.001526,-0.015625,0.007812,0.003906,18.681164,,,
21003078000,0.999756,-0.017639,0.014465,0.001526,-0.054688,0.007812,-0.035156,18.694386,,,
21022275000,0.999756,-0.017639,0.014465,0.001526,0.019531,0.007812,0.003906,18.713583,,,
21044011000,0.999756,-0.0177,0.014465,0.001526,-0.015625,0.007812,-0.035156,18.735319,,,
21062334000,0.999756,-0.0177,0.014404,0.001526,0.019531,0.007812,0.003906,18.753642,,,
21082301000,0.999756,-0.0177,0.014404,0.001526,-0.015625,0.007812,0.003906,18.773609,,,
21106230000,0.999756,-0.0177,0.014404,0.001526,0.019531,-0.03125,0.003906,18.797538,,,
21122028000,0.999756,-0.017639,0.014404,0.001526,-0.015625,0.007812,0.003906,18.813336,,,
21142695000,0.999756,-0.017639,0.014404,0.001526,0.019531,0.007812,0.003906,18.834003,,,
21162704000,0.999756,-0.0177,0.014404,0.001526,0.019531,0.007812,0.003906,18.854012,4.48,2.23,5.22
21185632000,0.999756,-0.0177,0.014404,0.001526,0.019531,0.007812,0.003906,18.87694,,,
21201802000,0.999756,-0.0177,0.014404,0.001526,-0.015625,0.007812,0.042969,18.89311,,,
21222026000,0.999756,-0.0177,0.014404,0.001526,-0.015625,0.007812,0.003906,18.913334,,,
21242406000,0.999756,-0.0177,0.014343,0.001526,0.019531,-0.03125,0.003906,18.933714,,,
21261781000,0.999756,-0.0177,0.014404,0.001526,-0.015625,0.007812,0.003906,18.953089,,,
21281404000,0.999756,-0.0177,0.014343,0.001526,0.019531,0.007812,-0.035156,18.972712,,,
21304389000,0.999756,-0.0177,0.014343,0.001526,-0.015625,0.007812,-0.035156,18.995697,,,
21321932000,0.999756,-0.017639,0.014404,0.001526,-0.015625,0.007812,0.003906,19.01324,,,
21341648000,0.999756,-0.017639,0.014404,0.001526,0.019531,0.007812,-0.035156,19.032956,,,
21363915000,0.999756,-0.017639,0.014404,0.001526,0.019531,0.007812,-0.035156,19.055223,4.48,2.22,5.21
21386088000,0.999756,-0.017578,0.014404,0.001526,-0.015625,0.007812,0.003906,19.077396,,,
21401146000,0.999756,-0.017639,0.014404,0.001526,-0.015625,0.0,0.003906,19.092454,,,
21421117000,0.999756,-0.017639,0.014404,0.001526,0.019531,-0.03125,0.003906,19.112425,,,
21446848000,0.999756,-0.017639,0.014404,0.001526,-0.015625,0.007812,0.003906,19.138156,,,
21461437000,0.999756,-0.017639,0.014343,0.001526,-0.015625,0.007812,0.003906,19.152745,,,
21480806000,0.999756,-0.017639,0.014343,0.001526,0.019531,0.007812,-0.035156,19.172114,,,
21501398000,0.999756,-0.017578,0.014404,0.001526,-0.015625,0.007812,0.003906,19.192706,,,
21521787000,0.999756,-0.017578,0.014404,0.001526,-0.015625,0.007812,0.003906,19.213095,,,
21540822000,0.999756,-0.017639,0.014404,0.001526,0.019531,-0.03125,0.003906,19.23213,,,
21561218000,0.999756,-0.017578,0.014404,0.001526,0.019531,0.007812,0.003906,19.252526,4.49,2.26,5.23
21591149000,0.999756,-0.017578,0.014404,0.001526,0.019531,0.0,0.003906,19.282457,,,
21606707000,0.999756,-0.017578,0.014404,0.001526,0.019531,0.0,0.003906,19.298015,,,
21620663000,0.999756,-0.017578,0.014404,0.001526,0.019531,0.0,-0.035156,19.311971,,,
21641050000,0.999756,-0.017578,0.014404,0.001526,0.011719,0.007812,-0.035156,19.332358,,,
21663476000,0.999756,-0.017578,0.014404,0.001526,0.011719,0.007812,-0.035156,19.354784,,,
21680914000,0.999756,-0.017578,0.014404,0.001526,0.011719,0.007812,0.003906,19.372222,,,
21700190000,0.999756,-0.017578,0.014404,0.001526,-0.023438,0.0,0.003906,19.391498,,,
21720542000,0.999756,-0.017578,0.014404,0.001526,-0.023438,0.007812,0.003906,19.41185,,,
21740020000,0.999756,-0.017578,0.014404,0.001526,-0.023438,0.007812,0.003906,19.431328,,,
21760686000,0.999756,-0.017578,0.014404,0.001526,0.011719,0.007812,0.003906,19.451994,4.49,2.26,5.23
21785324000,0.999756,-0.017578,0.014404,0.001526,0.011719,0.0,0.003906,19.476632,,,
21800400000,0.999756,-0.017578,0.014404,0.001526,0.011719,0.0,0.003906,19.491708,,,
21820186000,0.999756,-0.017578,0.014404,0.001526,-0.023438,0.0,0.003906,19.511494,,,
21849657000,0.999756,-0.017578,0.014404,0.001526,0.011719,0.0,0.042969,19.540965,,,
21866453000,0.999756,-0.017578,0.014404,0.001526,0.011719,0.0,0.003906,19.557761,,,
21880171000,0.999756,-0.017578,0.014404,0.001526,-0.023438,0.0,0.042969,19.571479,,,
21900080000,0.999756,-0.017578,0.014404,0.001526,-0.023438,-0.039062,0.003906,19.591388,,,
21929750000,0.999756,-0.017578,0.014404,0.001526,-0.023438,0.0,0.003906,19.621058,,,
21939829000,0.999756,-0.017578,0.014404,0.001526,0.011719,0.0,-0.035156,19.631137,,,
21959557000,0.999756,-0.017578,0.014404,0.001526,-0.023438,0.0,0.003906,19.650865,4.46,2.21,5.2
21989266000,0.999756,-0.017578,0.014404,0.001526,-0.023438,0.007812,0.003906,19.680574,,,
21999860000,0.999756,-0.017578,0.014404,0.001526,-0.023438,0.007812,0.003906,19.691168,,,
22019903000,0.999756,-0.017578,0.014404,0.001526,-0.023438,0.007812,-0.035156,19.711211,,,
22040969000,0.999756,-0.017578,0.014404,0.001526,0.019531,0.007812,0.003906,19.732277,,,
22063766000,0.999756,-0.017578,0.014404,0.001526,-0.015625,0.007812,0.003906,19.755074,,,
22080330000,0.999756,-0.017578,0.014404,0.001526,0.019531,0.007812,0.003906,19.771638,,,
22100340000,0.999756,-0.017578,0.014404,0.001526,0.019531,0.007812,0.003906,19.791648,,,
22119691000,0.999756,-0.017578,0.014404,0.001526,0.019531,-0.03125,0.003906,19.810999,,,
22144438000,0.999756,-0.017578,0.014404,0.001526,0.019531,0.007812,0.003906,19.835746,,,
22159966000,0.999756,-0.017578,0.014404,0.001526,0.011719,0.007812,0.003906,19.851274,4.51,2.21,5.21
22181244000,0.999756,-0.017578,0.014404,0.001526,-0.023438,0.007812,-0.035156,19.872552,,,
22199919000,0.999756,-0.017578,0.014404,0.001526,0.011719,0.007812,0.003906,19.891227,,,
22229495000,0.999756,-0.017578,0.014404,0.001526,0.011719,0.007812,0.003906,19.920803,,,
22238993000,0.999756,-0.017578,0.014404,0.001526,0.011719,0.007812,-0.035156,19.930301,,,
22259083000,0.999756,-0.017578,0.014404,0.001526,-0.023438,0.007812,-0.035156,19.950391,,,
22279609000,0.999756,-0.017578,0.014404,0.001526,-0.023438,0.0,0.003906,19.970917,,,
22308769000,0.999756,-0.017578,0.014404,0.001465,0.011719,-0.007812,0.003906,20.000077,,,
22318929000,0.999756,-0.017578,0.014404,0.001465,-0.023438,-0.046875,0.003906,20.010237,,,
22338338000,0.999756,-0.017578,0.014404,0.001465,0.011719,-0.007812,0.003906,20.029646,,,
22359139000,0.999756,-0.017578,0.014404,0.001465,0.011719,0.0,0.003906,20.050447,4.5,2.2,5.21
22388792000,0.999756,-0.017578,0.014404,0.001465,-0.023438,-0.039062,0.042969,20.0801,,,
22398139000,0.999756,-0.017578,0.014404,0.001465,0.011719,0.0,0.003906,20.089447,,,
22418154000,0.999756,-0.017578,0.014404,0.001465,-0.023438,0.0,0.042969,20.109462,,,
22439152000,0.999756,-0.017578,0.014404,0.001465,0.011719,0.0,0.003906,20.13046,,,
22458292000,0.999756,-0.017578,0.014404,0.001465,-0.023438,0.0,0.003906,20.1496,,,
22478105000,0.999756,-0.017517,0.014404,0.001465,0.011719,-0.039062,0.003906,20.169413,,,
22498785000,0.999756,-0.017578,0.014404,0.001465,-0.023438,0.0,-0.035156,20.190093,,,
22524891000,0.999756,-0.017517,0.014404,0.001465,-0.015625,-0.039062,0.003906,20.216199,,,
22538362000,0.999756,-0.017578,0.014404,0.001465,-0.015625,0.0,0.003906,20.22967,,,
22557883000,0.999756,-0.017578,0.014465,0.001465,-0.015625,-0.039062,0.003906,20.249191,4.47,2.2,5.21
22578630000,0.999756,-0.017517,0.014465,0.001465,0.019531,0.007812,0.003906,20.269938,,,
22608233000,0.999756,-0.017517,0.014465,0.001465,0.019531,0.007812,0.003906,20.299541,,,
22618640000,0.999756,-0.017517,0.014465,0.001465,0.011719,0.007812,0.003906,20.309948,,,
22638272000,0.999756,-0.017517,0.014465,0.001465,-0.023438,0.007812,-0.003906,20.32958,,,
22667979000,0.999756,-0.017456,0.014465,0.001465,-0.023438,0.007812,-0.003906,20.359287,,,
22683411000,0.999756,-0.017456,0.014465,0.001465,0.011719,0.007812,0.035156,20.374719,,,
22697746000,0.999756,-0.017456,0.014465,0.001465,-0.015625,0.007812,-0.003906,20.389054,,,
22718200000,0.999756,-0.017456,0.014465,0.001526,0.019531,0.007812,-0.003906,20.409508,,,
22747422000,0.999756,-0.017456,0.014465,0.001526,0.011719,0.007812,-0.003906,20.43873,,,
22761823000,0.999756,-0.017456,0.014465,0.001465,0.011719,0.007812,-0.003906,20.453131,4.49,2.22,5.25
22777766000,0.999756,-0.017456,0.014465,0.001465,0.011719,0.007812,-0.003906,20.469074,,,
22799227000,0.999756,-0.017456,0.014465,0.001465,-0.023438,0.007812,-0.003906,20.490535,,,
22827053000,0.999756,-0.017517,0.014404,0.001526,-0.023438,0.007812,-0.003906,20.518361,,,
22837970000,0.999756,-0.017456,0.014404,0.001526,0.011719,0.007812,-0.042969,20.529278,,,
22857734000,0.999756,-0.017456,0.014404,0.001526,-0.023438,0.007812,-0.003906,20.549042,,,
22878558000,0.999756,-0.017456,0.014404,0.001465,-0.023438,0.007812,-0.003906,20.569866,,,
22905882000,0.999756,-0.017456,0.014404,0.001465,-0.023438,0.007812,0.035156,20.59719,,,
22917963000,0.999756,-0.017517,0.014404,0.001465,-0.023438,0.007812,-0.003906,20.609271,,,
22937511000,0.999756,-0.017456,0.014465,0.001465,-0.023438,0.007812,-0.003906,20.628819,,,
22957010000,0.999756,-0.017456,0.014465,0.001465,0.011719,0.007812,0.035156,20.648318,,,
22977597000,0.999756,-0.017456,0.014465,0.001465,-0.023438,0.007812,0.035156,20.668905,4.5,2.22,5.23
22997827000,0.999756,-0.017456,0.014465,0.001465,0.011719,-0.03125,0.035156,20.689135,,,
23023344000,0.999756,-0.017456,0.014465,0.001526,-0.015625,0.007812,-0.003906,20.714652,,,
23037239000,0.999756,-0.017456,0.014465,0.001526,-0.015625,0.007812,-0.003906,20.728547,,,
23057430000,0.999756,-0.017395,0.014465,0.001465,-0.015625,0.007812,-0.003906,20.748738,,,
23086413000,0.999756,-0.017456,0.014465,0.001465,0.019531,0.007812,-0.003906,20.777721,,,
23097300000,0.999756,-0.017456,0.014465,0.001465,-0.015625,0.007812,-0.003906,20.788608,,,
23117266000,0.999756,-0.017395,0.014465,0.001465,-0.015625,0.007812,-0.003906,20.808574,,,
23146067000,0.999756,-0.017395,0.014465,0.001465,-0.015625,-0.03125,-0.003906,20.837375,,,
23156487000,0.999756,-0.017395,0.014526,0.001465,0.019531,0.007812,-0.003906,20.847795,,,
23178241000,0.999756,-0.017395,0.014526,0.001526,0.019531,0.007812,-0.042969,20.869549,4.49,2.2,5.21
23197043000,0.999756,-0.017395,0.014526,0.001465,-0.015625,0.007812,-0.003906,20.888351,,,
23217079000,0.999756,-0.017395,0.014526,0.001465,0.019531,0.007812,-0.003906,20.908387,,,
23237722000,0.999756,-0.017395,0.014526,0.001465,-0.015625,0.007812,0.003906,20.92903,,,
23256867000,0.999756,-0.017395,0.014526,0.001465,0.019531,0.007812,0.003906,20.948175,,,
23277038000,0.999756,-0.017395,0.014526,0.001465,0.019531,0.007812,0.003906,20.968346,,,
23297426000,0.999756,-0.017395,0.014465,0.001465,0.019531,0.007812,0.003906,20.988734,,,
23316892000,0.999756,-0.017456,0.014465,0.001465,-0.015625,0.007812,0.003906,21.0082,,,
23337040000,0.999756,-0.017456,0.014465,0.001465,-0.015625,0.007812,0.003906,21.028348,,,
23356801000,0.999756,-0.017456,0.014465,0.001465,0.019531,0.007812,-0.035156,21.048109,,,
23385769000,0.999756,-0.017456,0.014465,0.001465,-0.015625,0.007812,0.003906,21.077077,4.49,2.21,5.24
23398280000,0.999756,-0.017456,0.014465,0.001465,-0.015625,0.007812,0.003906,21.089588,,,
23416685000,0.999756,-0.017456,0.014465,0.001465,-0.015625,0.007812,0.042969,21.107993,,,
23437060000,0.999756,-0.017456,0.014465,0.001465,0.019531,0.007812,-0.035156,21.128368,,,
23463295000,0.999756,-0.017456,0.014465,0.001465,0.019531,0.0,0.003906,21.154603,,,
23476725000,0.999756,-0.017456,0.014465,0.001465,0.058594,0.0,0.042969,21.168033,,,
23496691000,0.999756,-0.017456,0.014465,0.001465,-0.015625,0.039062,-0.074219,21.187999,,,
23525888000,0.999756,-0.017456,0.014465,0.001465,-0.015625,0.0,0.003906,21.217196,,,
23535226000,0.999756,-0.017456,0.014526,0.001465,0.019531,-0.039062,0.003906,21.226534,,,
23556434000,0.999756,-0.017456,0.014526,0.001465,0.019531,0.0,0.042969,21.247742,,,
23576666000,0.999756,-0.017456,0.014587,0.001465,0.058594,0.0,0.003906,21.267974,4.48,2.2,5.2
23596095000,0.999756,-0.017456,0.014587,0.001526,0.019531,0.0,0.042969,21.287403,,,
23624907000,0.999756,-0.017517,0.014648,0.001587,0.011719,0.0,0.003906,21.316215,,,
23645309000,0.999756,-0.017517,0.014648,0.001648,0.167969,0.0,0.003906,21.336617,,,
23660308000,0.999756,-0.017578,0.014709,0.00177,0.769531,0.039062,0.003906,21.351616,,,
23676529000,0.999756,-0.017578,0.014709,0.001892,0.992188,0.007812,0.042969,21.367837,,,
23704649000,0.999756,-0.0177,0.014771,0.001892,1.699219,-0.039062,0.15625,21.395957,,,
23717376000,0.999756,-0.017517,0.014648,0.001892,1.707031,-0.070312,-0.042969,21.408684,,,
23736851000,0.999756,-0.017822,0.014771,0.001831,1.507812,-0.144531,-0.082031,21.428159,,,
23756491000,0.999756,-0.0177,0.014771,0.00177,1.277344,0.046875,0.035156,21.447799,,,
23784597000,0.999756,-0.0177,0.014832,0.001709,0.425781,-0.03125,0.078125,21.475905,4.53,2.24,5.24
23795377000,0.999756,-0.017883,0.014954,0.001709,0.347656,0.121094,0.347656,21.486685,,,
23824472000,0.999756,-0.017883,0.015015,0.001709,-0.308594,0.007812,-0.035156,21.51578,,,
23844425000,0.999756,-0.017761,0.015076,0.001648,-0.433594,-0.03125,-0.035156,21.535733,,,
23855271000,0.999756,-0.0177,0.015076,0.001648,-0.472656,-0.03125,0.15625,21.546579,,,
23884716000,0.999756,-0.0177,0.015198,0.001587,-0.664062,-0.117188,0.15625,21.576024,,,
23903821000,0.999756,-0.017578,0.015198,0.001587,-0.472656,-0.191406,-0.152344,21.595129,,,
23924758000,0.999756,-0.0177,0.015137,0.001587,-0.746094,0.113281,0.042969,21.616066,,,
23948306000,0.999756,-0.017456,0.015198,0.001587,-0.863281,0.074219,-0.113281,21.639614,,,
23955155000,0.999756,-0.017578,0.01532,0.001587,-0.707031,-0.191406,-0.1875,21.646463,,,
23984466000,0.999756,-0.017456,0.01532,0.001648,-0.714844,0.113281,-0.035156,21.675774,4.56,2.33,5.27
23995282000,0.999756,-0.017334,0.015259,0.001648,-0.714844,-0.078125,0.117188,21.68659,,,
24026739000,0.999756,-0.017334,0.01532,0.001648,-0.371094,0.03125,0.003906,21.718047,,,
24044282000,0.999756,-0.017395,0.015442,0.001648,-0.179688,-0.007812,0.15625,21.73559,,,
24064171000,0.999756,-0.017334,0.015442,0.001648,-0.101562,-0.046875,0.003906,21.755479,,,
24083526000,0.999756,-0.017334,0.015503,0.001648,-0.058594,-0.007812,-0.035156,21.774834,,,
24103500000,0.999756,-0.017273,0.015503,0.001648,-0.132812,-0.160156,-0.074219,21.794808,,,
24123800000,0.999756,-0.017212,0.015503,0.001648,-0.410156,0.03125,-0.035156,21.815108,,,
24148424000,0.999756,-0.017334,0.015503,0.001648,-0.257812,-0.085938,-0.074219,21.839732,,,
24163676000,0.999756,-0.017212,0.015442,0.001587,-0.601562,-0.007812,0.003906,21.854984,4.54,2.29,5.27
24183620000,0.999756,-0.017212,0.015503,0.001648,-0.027344,0.144531,0.117188,21.874928,,,
24209334000,0.999756,-0.017334,0.015564,0.001648,0.050781,0.066406,0.078125,21.900642,,,
24224059000,0.999756,-0.017273,0.015503,0.001587,0.050781,-0.238281,-0.113281,21.915367,,,
24243232000,0.999756,-0.017212,0.015503,0.001709,-0.101562,-0.046875,-0.035156,21.93454,,,
24269238000,0.999756,-0.017212,0.015503,0.001709,-0.101562,0.183594,0.003906,21.960546,,,
24282931000,0.999756,-0.017212,0.015503,0.001648,-0.140625,-0.007812,-0.035156,21.974239,,,
24303039000,0.999756,-0.01709,0.015503,0.001648,-0.066406,0.066406,0.003906,21.994347,,,
24324629000,0.999756,-0.01709,0.015503,0.001587,-0.257812,0.03125,-0.035156,22.015937,,,
24347582000,0.999756,-0.01709,0.015564,0.001587,-0.5625,-0.046875,-0.035156,22.03889,,,
24363251000,0.999756,-0.017151,0.015564,0.001587,-1.0625,0.03125,0.003906,22.054559,4.58,2.3,5.28
24383983000,0.999756,-0.01709,0.015503,0.001587,-0.058594,0.0,0.003906,22.075291,,,
24402606000,0.999756,-0.01709,0.015503,0.001587,-0.09375,-0.039062,0.003906,22.093914,,,
24423089000,0.999756,-0.01709,0.015503,0.001587,-0.09375,0.0,0.003906,22.114397,,,
24453197000,0.999756,-0.01709,0.015503,0.001587,-0.09375,0.0,0.003906,22.144505,,,
24468299000,0.999756,-0.01709,0.015503,0.001587,-0.132812,0.0,0.003906,22.159607,,,
24483276000,0.999756,-0.01709,0.015503,0.001587,-0.09375,0.0,0.003906,22.174584,,,
24502985000,0.999756,-0.01709,0.015503,0.001587,-0.09375,0.0,0.042969,22.194293,,,
24523306000,0.999756,-0.01709,0.015503,0.001587,-0.09375,0.0,0.003906,22.214614,,,
24542190000,0.999756,-0.01709,0.015503,0.001587,-0.09375,0.0,0.003906,22.233498,,,
24562810000,0.999756,-0.01709,0.015503,0.001587,-0.125,-0.039062,0.003906,22.254118,4.57,2.31,5.29
24582162000,0.999756,-0.01709,0.015503,0.001587,-0.085938,-0.039062,0.042969,22.27347,,,
24607732000,0.999756,-0.01709,0.015503,0.001587,-0.050781,0.0,0.003906,22.29904,,,
24622366000,0.999756,-0.01709,0.015503,0.001587,-0.050781,0.0,0.042969,22.313674,,,
24642547000,0.999756,-0.01709,0.015503,0.001587,-0.085938,0.0,0.003906,22.333855,,,
24662431000,0.999756,-0.01709,0.015503,0.001587,-0.125,0.0,0.003906,22.353739,,,
24686461000,0.999756,-0.017151,0.015503,0.001587,-0.085938,0.0,0.042969,22.377769,,,
24702009000,0.999756,-0.01709,0.015503,0.001587,-0.085938,0.0,0.003906,22.393317,,,
24721951000,0.999756,-0.017151,0.015503,0.001587,0.0,0.0,-0.003906,22.413259,,,
24741832000,0.999756,-0.01709,0.015503,0.001587,0.0,0.0,-0.003906,22.43314,,,
24762407000,0.999756,-0.01709,0.015503,0.001587,0.0,0.0,-0.003906,22.453715,4.56,2.29,5.29
24782279000,0.999756,-0.01709,0.015503,0.001587,0.0,0.0,0.035156,22.473587,,,
24801526000,0.999756,-0.01709,0.015503,0.001587,-0.039062,0.039062,-0.003906,22.492834,,,
24822893000,0.999756,-0.01709,0.015503,0.001587,0.0,0.0,-0.003906,22.514201,,,
24848546000,0.999756,-0.01709,0.015503,0.001587,0.0,0.0,-0.003906,22.539854,,,
24861766000,0.999756,-0.01709,0.015503,0.001587,0.0,0.0,0.035156,22.553074,,,
24881545000,0.999756,-0.01709,0.015503,0.001587,-0.039062,0.0,-0.003906,22.572853,,,
24902101000,0.999756,-0.01709,0.015503,0.001587,0.0,0.0,-0.003906,22.593409,,,
24924443000,0.999756,-0.017151,0.015503,0.001587,0.0,0.0,-0.003906,22.615751,,,
24941940000,0.999756,-0.017151,0.015503,0.001648,0.0,0.0,-0.003906,22.633248,,,
24962288000,0.999756,-0.017151,0.015503,0.001648,0.0,0.0,0.003906,22.653596,4.53,2.32,5.27
24982540000,0.999756,-0.017151,0.015503,0.001587,0.0,0.0,0.003906,22.673848,,,
25007974000,0.999756,-0.01709,0.015442,0.001587,-0.039062,0.0,0.003906,22.699282,,,
25021272000,0.999756,-0.01709,0.015442,0.001587,0.0,0.0,0.003906,22.71258,,,
25051760000,0.999756,-0.01709,0.015442,0.001587,0.0,0.0,0.003906,22.743068,,,
25068132000,0.999756,-0.017151,0.015442,0.001587,-0.039062,0.0,0.003906,22.75944,,,
25081257000,0.999756,-0.01709,0.015442,0.001587,0.007812,0.0,0.003906,22.772565,,,
25101148000,0.999756,-0.01709,0.015442,0.001587,0.007812,0.0,0.042969,22.792456,,,
25122490000,0.999756,-0.017151,0.015381,0.001587,0.007812,0.0,0.003906,22.813798,,,
25147597000,0.999756,-0.017151,0.015381,0.001587,0.007812,0.039062,0.003906,22.838905,,,
25161036000,0.999756,-0.017151,0.015381,0.001587,0.007812,0.0,0.003906,22.852344,4.58,2.29,5.27
25180637000,0.999756,-0.017151,0.015381,0.001587,0.007812,0.0,0.003906,22.871945,,,
25201241000,0.999756,-0.01709,0.015381,0.001587,0.007812,0.0,0.042969,22.892549,,,
25225551000,0.999756,-0.017151,0.015381,0.001587,0.042969,0.0,0.003906,22.916859,,,
25240692000,0.999756,-0.017151,0.015381,0.001587,0.0,0.0,0.003906,22.932,,,
25260882000,0.999756,-0.017151,0.015381,0.001587,-0.007812,0.0,0.003906,22.95219,,,
25280999000,0.999756,-0.017151,0.015381,0.001587,-0.007812,0.0,0.003906,22.972307,,,
25307615000,0.999756,-0.017151,0.015381,0.001587,-0.007812,0.0,0.003906,22.998923,,,
25320160000,0.999756,-0.017151,0.015381,0.001587,0.0,0.0,0.003906,23.011468,,,
25340460000,0.999756,-0.017151,0.015381,0.001587,0.0,0.0,0.042969,23.031768,,,
25370224000,0.999756,-0.017151,0.015381,0.001587,0.035156,0.0,0.042969,23.061532,4.55,2.31,5.31
25380721000,0.999756,-0.017151,0.015381,0.001587,0.0,-0.039062,0.003906,23.072029,,,
25400231000,0.999756,-0.017151,0.015381,0.001587,0.0,0.0,0.003906,23.091539,,,
25430422000,0.999756,-0.017151,0.015381,0.001587,-0.007812,0.0,0.003906,23.12173,,,
25446895000,0.999756,-0.017151,0.015381,0.001587,-0.046875,0.0,0.003906,23.138203,,,
25460515000,0.999756,-0.017151,0.015381,0.001587,-0.007812,0.0,0.003906,23.151823,,,
25480591000,0.999756,-0.017151,0.015381,0.001526,0.0,0.0,0.003906,23.171899,,,
25505215000,0.999756,-0.017151,0.015381,0.001526,0.0,0.0,0.003906,23.196523,,,
25519831000,0.999756,-0.017151,0.015381,0.001526,0.0,0.0,0.003906,23.211139,,,
25549844000,0.999756,-0.017151,0.015381,0.001526,0.0,0.0,0.003906,23.241152,,,
25567097000,0.999756,-0.017151,0.015381,0.001526,0.0,0.0,0.042969,23.258405,4.57,2.29,5.3
25579759000,0.999756,-0.017212,0.015381,0.001526,0.0,0.0,0.003906,23.271067,,,
25599975000,0.999756,-0.017212,0.015381,0.001526,0.0,0.0,0.003906,23.291283,,,
25619980000,0.999756,-0.017212,0.015381,0.001526,0.0,0.0,0.003906,23.311288,,,
25643968000,0.999756,-0.017212,0.015381,0.001526,0.0,0.0,0.003906,23.335276,,,
25659153000,0.999756,-0.017273,0.015381,0.001526,0.0,0.0,0.003906,23.350461,,,
25679048000,0.999756,-0.017273,0.015381,0.001526,0.0,0.0,0.003906,23.370356,,,
25709728000,0.999756,-0.017212,0.015381,0.001526,0.0,0.0,0.003906,23.401036,,,
25719330000,0.999756,-0.017212,0.015381,0.001526,-0.039062,0.039062,0.003906,23.410638,,,
25739477000,0.999756,-0.017273,0.015381,0.001526,0.0,-0.039062,0.003906,23.430785,,,
25759133000,0.999756,-0.017273,0.015381,0.001526,0.0,0.0,0.003906,23.450441,,,
25789263000,0.999756,-0.017212,0.01532,0.001526,0.0,0.0,0.003906,23.480571,4.52,2.28,5.26
25799636000,0.999756,-0.017212,0.01532,0.001526,0.0,-0.039062,0.042969,23.490944,,,
25818991000,0.999756,-0.017212,0.01532,0.001526,0.0,0.0,0.003906,23.510299,,,
25839144000,0.999756,-0.017212,0.01532,0.001465,0.0,0.0,0.003906,23.530452,,,
25868789000,0.999756,-0.017212,0.01532,0.001465,0.0,0.0,0.003906,23.560097,,,
25886027000,0.999756,-0.017212,0.01532,0.001526,-0.039062,0.0,0.042969,23.577335,,,
25898702000,0.999756,-0.017212,0.01532,0.001465,0.0,0.0,0.003906,23.59001,,,
25918322000,0.999756,-0.017212,0.01532,0.001526,0.0,0.0,0.003906,23.60963,,,
25939485000,0.999756,-0.017212,0.01532,0.001465,0.0,0.0,0.003906,23.630793,,,
25971165000,0.999756,-0.017151,0.01532,0.001465,0.0,0.0,-0.042969,23.662473,4.56,2.27,5.29
25979295000,0.999756,-0.017151,0.01532,0.001526,0.0,0.0,-0.003906,23.670603,,,
25998488000,0.999756,-0.017151,0.01532,0.001465,0.0,0.0,-0.003906,23.689796,,,
26019131000,0.999756,-0.017151,0.01532,0.001465,0.0,0.0,0.035156,23.710439,,,
26048743000,0.999756,-0.017151,0.01532,0.001465,0.0,0.0,-0.003906,23.740051,,,
26058533000,0.999756,-0.017151,0.01532,0.001465,0.0,0.0,-0.003906,23.749841,,,
26080087000,0.999756,-0.017212,0.01532,0.001526,0.0,0.0,0.003906,23.771395,,,
26098206000,0.999756,-0.017212,0.01532,0.001526,0.0,0.0,0.003906,23.789514,,,
26118352000,0.999756,-0.017212,0.01532,0.001526,-0.039062,0.0,0.003906,23.80966,,,
26138499000,0.999756,-0.017212,0.01532,0.001526,0.0,0.0,0.042969,23.829807,,,
26157984000,0.999756,-0.017212,0.01532,0.001526,0.0,-0.039062,-0.003906,23.849292,,,
26180584000,0.999756,-0.017212,0.01532,0.001526,0.0,0.0,-0.003906,23.871892,4.55,2.28,5.28
26199591000,0.999756,-0.017212,0.01532,0.001526,0.035156,0.039062,-0.003906,23.890899,,,
26224684000,0.999756,-0.017212,0.01532,0.001526,0.0,0.0,-0.003906,23.915992,,,
26238003000,0.999756,-0.017212,0.01532,0.001526,0.0,0.0,0.003906,23.929311,,,
26257860000,0.999756,-0.017212,0.01532,0.001526,0.0,0.0,0.003906,23.949168,,,
26288081000,0.999756,-0.017212,0.01532,0.001526,0.0,0.0,0.003906,23.979389,,,
26298277000,0.999756,-0.017212,0.01532,0.001526,0.0,-0.039062,0.003906,23.989585,,,
26318345000,0.999756,-0.017273,0.01532,0.001526,0.0,0.0,0.003906,24.009653,,,
26338013000,0.999756,-0.017273,0.01532,0.001526,0.0,-0.039062,0.042969,24.029321,,,
26368128000,0.999756,-0.017273,0.01532,0.001526,0.0,0.0,0.003906,24.059436,4.56,2.3,5.28
26385797000,0.999756,-0.017273,0.01532,0.001526,0.0,0.0,0.003906,24.077105,,,
26397955000,0.999756,-0.017273,0.01532,0.001526,0.0,-0.039062,0.003906,24.089263,,,
26417800000,0.999756,-0.017334,0.01532,0.001526,0.0,0.0,0.003906,24.109108,,,
26447714000,0.999756,-0.017334,0.01532,0.001526,0.0,0.0,0.003906,24.139022,,,
26457429000,0.999756,-0.017334,0.01532,0.001526,0.0,0.0,-0.035156,24.148737,,,
26477749000,0.999756,-0.017334,0.01532,0.001526,0.0,0.0,0.003906,24.169057,,,
26497547000,0.999756,-0.017334,0.01532,0.001526,0.0,0.0,0.003906,24.188855,,,
26527469000,0.999756,-0.017334,0.015259,0.001526,0.0,0.0,0.003906,24.218777,,,
26537280000,0.999756,-0.017334,0.01532,0.001526,0.0,0.0,0.003906,24.228588,,,
26557230000,0.999756,-0.017334,0.01532,0.001587,0.0,0.0,0.003906,24.248538,,,
26577986000,0.999756,-0.017395,0.01532,0.001526,0.0,0.0,0.003906,24.269294,4.56,2.28,5.29
26607206000,0.999756,-0.017334,0.015381,0.001526,0.0,0.0,0.003906,24.298514,,,
26617692000,0.999756,-0.017334,0.01532,0.001526,0.0,0.0,0.003906,24.309,,,
26637582000,0.999756,-0.017334,0.015381,0.001587,0.0,0.0,0.003906,24.32889,,,
26657505000,0.999756,-0.017334,0.015381,0.001526,0.0,0.0,0.003906,24.348813,,,
26688743000,0.999756,-0.017334,0.01532,0.001526,0.0,0.0,-0.035156,24.380051,,,
26697017000,0.999756,-0.017334,0.01532,0.001526,0.0,0.0,0.042969,24.388325,,,
26717320000,0.999756,-0.017334,0.01532,0.001526,0.0,0.0,0.003906,24.408628,,,
26737364000,0.999756,-0.017334,0.01532,0.001526,0.0,0.0,0.003906,24.428672,,,
26757182000,0.999756,-0.017334,0.01532,0.001526,0.0,0.0,0.003906,24.44849,,,
26785065000,0.999756,-0.017334,0.01532,0.001526,0.0,0.0,0.003906,24.476373,4.53,2.32,5.29
26797098000,0.999756,-0.017334,0.01532,0.001526,0.035156,0.0,0.003906,24.488406,,,
26817200000,0.999756,-0.017334,0.01532,0.001526,0.0,0.0,0.042969,24.508508,,,
26836920000,0.999756,-0.017334,0.01532,0.001526,0.0,0.0,0.003906,24.528228,,,
26866354000,0.999756,-0.017334,0.01532,0.001526,0.0,0.0,0.003906,24.557662,,,
26886608000,0.999756,-0.017334,0.01532,0.001526,0.0,0.0,-0.035156,24.577916,,,
26896510000,0.999756,-0.017334,0.01532,0.001526,-0.039062,0.0,0.003906,24.587818,,,
26916997000,0.999756,-0.017334,0.01532,0.001526,0.0,0.0,0.042969,24.608305,,,
26945861000,0.999756,-0.017334,0.01532,0.001526,0.0,0.0,0.003906,24.637169,,,
26967490000,0.999756,-0.017334,0.01532,0.001526,0.0,0.0,0.003906,24.658798,,,
26975957000,0.999756,-0.017334,0.01532,0.001526,0.0,0.0,0.003906,24.667265,4.56,2.3,5.27
27012494000,0.999756,-0.017334,0.01532,0.001526,0.0,0.0,0.003906,24.703802,,,
27025848000,0.999756,-0.017334,0.01532,0.001526,0.0,0.0,0.003906,24.717156,,,
27045687000,0.999756,-0.017334,0.01532,0.001526,0.0,0.039062,0.003906,24.736995,,,
27055532000,0.999756,-0.017334,0.01532,0.001526,0.0,0.0,0.042969,24.74684,,,
27076592000,0.999756,-0.017334,0.01532,0.001526,0.0,-0.039062,0.042969,24.7679,,,
27099311000,0.999756,-0.017334,0.01532,0.001526,0.0,0.0,0.003906,24.790619,,,
27125347000,0.999756,-0.017334,0.01532,0.001526,0.0,0.0,0.003906,24.816655,,,
27135253000,0.999756,-0.017334,0.01532,0.001526,0.0,0.0,0.042969,24.826561,,,
27156490000,0.999756,-0.017334,0.01532,0.001526,0.0,0.0,0.003906,24.847798,,,
27186028000,0.999756,-0.017334,0.01532,0.001526,-0.039062,0.0,0.003906,24.877336,4.58,2.31,5.28
27195350000,0.999756,-0.017334,0.01532,0.001526,0.0,0.0,0.003906,24.886658,,,
27216711000,0.999756,-0.017334,0.01532,0.001526,-0.039062,0.0,0.003906,24.908019,,,
27245661000,0.999756,-0.017334,0.015381,0.001526,-0.039062,0.039062,0.003906,24.936969,,,
27255282000,0.999756,-0.017334,0.015381,0.001526,0.035156,0.0,0.042969,24.94659,,,
27284983000,0.999756,-0.017273,0.015381,0.001526,-0.039062,0.039062,0.042969,24.976291,,,
27295266000,0.999756,-0.017273,0.015381,0.001526,0.0,-0.039062,0.003906,24.986574,,,
27316716000,0.999756,-0.017273,0.015442,0.001526,0.035156,0.0,0.003906,25.008024,,,
27337399000,0.999756,-0.017273,0.015442,0.001526,0.035156,0.0,0.003906,25.028707,,,
27365115000,0.999756,-0.017273,0.015381,0.001526,0.0,0.0,0.003906,25.056423,,,
27375299000,0.999756,-0.017334,0.015381,0.001526,0.0,0.0,0.042969,25.066607,4.59,2.28,5.27
27411753000,0.999756,-0.017334,0.015442,0.001526,-0.03125,0.0,-0.035156,25.103061,,,
27424848000,0.999756,-0.017334,0.015503,0.001526,0.042969,0.0,0.003906,25.116156,,,
27445145000,0.999756,-0.017395,0.015503,0.001526,0.007812,0.0,0.003906,25.136453,,,
27455343000,0.999756,-0.017395,0.015503,0.001526,0.042969,0.0,-0.035156,25.146651,,,
27484867000,0.999756,-0.017517,0.015503,0.001709,1.253906,-0.03125,0.035156,25.176175,,,
27507713000,0.999695,-0.017517,0.015503,0.001709,1.691406,0.007812,0.003906,25.199021,,,
27515384000,0.999695,-0.017578,0.015442,0.001709,1.691406,-0.070312,0.15625,25.206692,,,
27549664000,0.999695,-0.017517,0.015625,0.001648,1.53125,-0.070312,0.117188,25.240972,,,
27555194000,0.999695,-0.017517,0.015686,0.001648,1.375,0.007812,0.078125,25.246502,,,
27584659000,0.999695,-0.017578,0.015747,0.001587,0.402344,-0.03125,-0.074219,25.275967,4.54,2.28,5.29
27604129000,0.999695,-0.017578,0.015808,0.001526,0.027344,-0.070312,-0.113281,25.295437,,,
27629340000,0.999695,-0.017578,0.01593,0.001526,-0.171875,-0.109375,-0.113281,25.320648,,,
27644532000,0.999695,-0.017517,0.015869,0.001526,-0.410156,0.160156,-0.113281,25.33584,,,
27664219000,0.999695,-0.017395,0.01593,0.001404,-0.675781,0.390625,0.078125,25.355527,,,
27683817000,0.999695,-0.017456,0.016052,0.001343,-0.648438,0.152344,0.347656,25.375125,,,
27704311000,0.999695,-0.017456,0.016113,0.001038,-0.5625,0.230469,0.15625,25.395619,,,
27727719000,0.999695,-0.017456,0.016052,0.000549,-0.953125,0.152344,-0.113281,25.419027,,,
27750213000,0.999695,-0.017639,0.016052,6.1e-05,-0.800781,-0.070312,0.15625,25.441521,,,
27764307000,0.999695,-0.017639,0.015991,-0.000427,-0.683594,0.007812,-0.074219,25.455615,,,
27784867000,0.999695,-0.017517,0.01593,-0.000854,-0.578125,-0.144531,0.003906,25.476175,4.61,2.27,5.31
27803581000,0.999695,-0.017517,0.01593,-0.000977,-0.5,-0.078125,-0.152344,25.494889,,,
27827305000,0.999695,-0.017456,0.01593,-0.000854,-0.386719,-0.070312,-0.074219,25.518613,,,
27843589000,0.999695,-0.017395,0.015869,-0.000366,-0.386719,-0.230469,-0.003906,25.534897,,,
27863999000,0.999695,-0.017395,0.015808,0.000488,-0.242188,-0.117188,0.109375,25.555307,,,
27883658000,0.999695,-0.017456,0.015808,0.001099,-0.203125,-0.039062,0.035156,25.574966,,,
27909738000,0.999695,-0.017456,0.015808,0.000977,-0.394531,-0.230469,-0.003906,25.601046,,,
27923468000,0.999695,-0.017334,0.015869,0.001099,-0.242188,-0.078125,-0.003906,25.614776,,,
27943021000,0.999695,-0.017395,0.015869,0.001099,-0.277344,-0.078125,-0.003906,25.634329,,,
27965500000,0.999695,-0.017334,0.015808,0.001099,-0.433594,0.0,0.070312,25.656808,,,
27988476000,0.999695,-0.017395,0.015808,0.00116,-0.277344,-0.039062,-0.042969,25.679784,4.59,2.28,5.31
28003194000,0.999695,-0.017334,0.015808,0.001099,-0.433594,0.039062,-0.082031,25.694502,,,
28032796000,0.999695,-0.017334,0.015869,0.001038,-0.699219,0.039062,0.035156,25.724104,,,
28049917000,0.999695,-0.017334,0.015869,0.001099,-0.316406,0.0,-0.042969,25.741225,,,
28062747000,0.999695,-0.017334,0.015869,0.001099,-0.085938,0.0,0.035156,25.754055,,,
28083442000,0.999695,-0.017334,0.015869,0.001099,-0.125,0.0,-0.003906,25.77475,,,
28105474000,0.999695,-0.017334,0.015808,0.001099,-0.125,0.0,-0.042969,25.796782,,,
28122578000,0.999695,-0.017395,0.015808,0.001099,-0.125,0.0,-0.003906,25.813886,,,
28142578000,0.999695,-0.017395,0.015686,0.001099,-0.085938,0.039062,-0.003906,25.833886,,,
28163115000,0.999695,-0.017334,0.015808,0.001099,0.027344,-0.078125,0.109375,25.854423,,,
28189570000,0.999756,-0.017334,0.015686,0.001038,-0.203125,-0.039062,-0.121094,25.880878,4.57,2.29,5.34
28202824000,0.999756,-0.017273,0.015686,0.001038,-0.203125,-0.078125,-0.082031,25.894132,,,
28223897000,0.999756,-0.017395,0.015625,0.001038,-0.195312,-0.046875,-0.121094,25.915205,,,
28252720000,0.999756,-0.017273,0.015686,0.000977,-0.078125,-0.152344,-0.003906,25.944028,,,
28269189000,0.999756,-0.017273,0.015686,0.000977,-0.117188,0.074219,0.035156,25.960497,,,
28282855000,0.999756,-0.017273,0.015686,0.000977,-0.078125,0.039062,0.035156,25.974163,,,
28302402000,0.999756,-0.017273,0.015686,0.000977,-0.117188,0.0,-0.003906,25.99371,,,
28322357000,0.999756,-0.017273,0.015686,0.000977,-0.117188,-0.007812,-0.042969,26.013665,,,
28346296000,0.999756,-0.017273,0.015686,0.000977,-0.117188,0.0,-0.042969,26.037604,,,
28362398000,0.999756,-0.017273,0.015686,0.000977,-0.078125,-0.039062,-0.003906,26.053706,,,
28382530000,0.999756,-0.017273,0.015686,0.001038,-0.117188,0.0,-0.003906,26.073838,4.59,2.28,5.31
28401954000,0.999756,-0.017273,0.015686,0.001038,0.023438,0.023438,-0.035156,26.093262,,,
28427713000,0.999756,-0.017273,0.015686,0.001038,-0.015625,-0.015625,0.003906,26.119021,,,
28442259000,0.999756,-0.017212,0.015686,0.001038,-0.015625,-0.015625,0.003906,26.133567,,,
28464406000,0.999756,-0.017212,0.015686,0.001038,-0.015625,0.015625,0.003906,26.155714,,,
28488067000,0.999756,-0.017212,0.015686,0.001038,0.023438,-0.023438,0.003906,26.179375,,,
28501984000,0.999756,-0.017273,0.015747,0.000977,-0.015625,-0.023438,0.003906,26.193292,,,
28521990000,0.999756,-0.017273,0.015686,0.000977,0.023438,-0.015625,0.003906,26.213298,,,
28541644000,0.999756,-0.017273,0.015686,0.001038,-0.015625,-0.015625,0.003906,26.232952,,,
28562259000,0.999756,-0.017273,0.015747,0.001038,-0.015625,-0.007812,0.003906,26.253567,,,
28587812000,0.999756,-0.017273,0.015686,0.001038,-0.015625,-0.007812,0.042969,26.27912,4.61,2.26,5.32
28602208000,0.999756,-0.017273,0.015686,0.001038,-0.015625,0.03125,0.003906,26.293516,,,
28621319000,0.999756,-0.017334,0.015686,0.000977,0.023438,-0.007812,0.003906,26.312627,,,
28651383000,0.999756,-0.017334,0.015686,0.001038,0.023438,0.03125,0.003906,26.342691,,,
28661796000,0.999756,-0.017334,0.015686,0.001038,-0.015625,0.03125,0.003906,26.353104,,,
28681770000,0.999756,-0.017334,0.015686,0.001038,-0.015625,-0.007812,0.003906,26.373078,,,
28702392000,0.999756,-0.017334,0.015686,0.001038,-0.015625,0.03125,0.003906,26.3937,,,
28728463000,0.999756,-0.017273,0.015686,0.001038,-0.015625,-0.007812,0.003906,26.419771,,,
28741422000,0.999756,-0.017273,0.015686,0.001038,-0.015625,-0.007812,0.003906,26.43273,,,
28764798000,0.999756,-0.017273,0.015686,0.001038,-0.015625,0.03125,0.003906,26.456106,,,
28780919000,0.999756,-0.017334,0.015686,0.001038,-0.015625,-0.007812,0.003906,26.472227,4.64,2.27,5.37
28801331000,0.999756,-0.017334,0.015686,0.000977,0.023438,-0.007812,-0.035156,26.492639,,,
28828066000,0.999756,-0.017334,0.015686,0.000977,-0.015625,-0.007812,0.003906,26.519374,,,
28841069000,0.999756,-0.017273,0.015686,0.001038,-0.015625,-0.007812,0.003906,26.532377,,,
28860778000,0.999756,-0.017273,0.015686,0.001038,-0.015625,-0.007812,0.003906,26.552086,,,
28890585000,0.999756,-0.017334,0.015686,0.001038,-0.015625,-0.007812,0.003906,26.581893,,,
28901479000,0.999756,-0.017273,0.015686,0.001038,0.023438,-0.007812,0.003906,26.592787,,,
28920986000,0.999756,-0.017273,0.015686,0.001038,-0.015625,-0.007812,-0.035156,26.612294,,,
28951201000,0.999756,-0.017273,0.015686,0.001038,-0.015625,-0.007812,0.003906,26.642509,,,
28966483000,0.999756,-0.017273,0.015747,0.001038,0.023438,-0.007812,0.003906,26.657791,,,
28980760000,0.999756,-0.017273,0.015747,0.001038,0.023438,-0.007812,-0.035156,26.672068,4.62,2.26,5.33
29001127000,0.999756,-0.017273,0.015747,0.001099,-0.015625,-0.007812,0.003906,26.692435,,,
29025055000,0.999756,-0.017273,0.015747,0.001099,0.023438,-0.007812,0.003906,26.716363,,,
29043620000,0.999756,-0.017212,0.015747,0.001099,0.023438,-0.007812,0.003906,26.734928,,,
29060720000,0.999756,-0.017212,0.015747,0.001099,-0.015625,0.023438,-0.035156,26.752028,,,
29090413000,0.999756,-0.017212,0.015747,0.00116,-0.015625,-0.007812,0.003906,26.781721,,,
29107053000,0.999756,-0.017212,0.015747,0.00116,0.023438,-0.007812,0.003906,26.798361,,,
29120065000,0.999756,-0.017212,0.015686,0.00116,-0.015625,-0.007812,0.003906,26.811373,,,
