timestamp_ns,qw,qx,qy,qz,ax,ay,az
2531321000,0.999390,-0.010010,0.033386,-0.000366,-0.003906,0.003906,-0.011719
2541206000,0.999390,-0.010010,0.033386,-0.000366,-0.035156,0.003906,0.027344
2561408000,0.999390,-0.010010,0.033386,-0.000366,0.003906,0.003906,0.027344
2571418000,0.999390,-0.010010,0.033386,-0.000366,-0.035156,0.003906,0.027344
2581212000,0.999390,-0.010010,0.033386,-0.000366,-0.035156,0.003906,0.027344
2594009000,0.999390,-0.010010,0.033386,-0.000305,-0.035156,-0.035156,0.027344
2600715000,0.999390,-0.010010,0.033386,-0.000305,0.003906,0.003906,0.027344
2610684000,0.999390,-0.010010,0.033386,-0.000366,-0.035156,0.003906,-0.011719
2621465000,0.999390,-0.010010,0.033386,-0.000366,-0.035156,0.003906,-0.011719
2630676000,0.999390,-0.010010,0.033386,-0.000366,0.003906,0.003906,0.027344
2640871000,0.999390,-0.009949,0.033386,-0.000366,-0.027344,0.003906,-0.011719
2651664000,0.999390,-0.009949,0.033447,-0.000366,0.011719,0.003906,-0.011719
2661162000,0.999390,-0.009949,0.033447,-0.000366,-0.027344,0.042969,0.019531
2680998000,0.999390,-0.009949,0.033447,-0.000366,0.011719,0.003906,-0.019531
2701214000,0.999390,-0.009949,0.033447,-0.000366,0.011719,0.003906,0.019531
2720568000,0.999390,-0.009949,0.033447,-0.000366,-0.019531,-0.003906,0.011719
2742374000,0.999390,-0.009949,0.033447,-0.000366,0.019531,-0.003906,0.011719
2767013000,0.999390,-0.009949,0.033447,-0.000366,-0.019531,-0.003906,0.011719
2780087000,0.999390,-0.009949,0.033447,-0.000366,-0.019531,-0.003906,-0.027344
2799938000,0.999390,-0.009949,0.033447,-0.000366,-0.019531,-0.003906,0.011719
2827240000,0.999390,-0.009949,0.033447,-0.000305,0.019531,-0.003906,0.011719
2840715000,0.999390,-0.009949,0.033447,-0.000305,0.019531,-0.003906,0.011719
2862394000,0.999390,-0.009949,0.033447,-0.000305,0.019531,-0.003906,0.011719
2882524000,0.999390,-0.010010,0.033447,-0.000305,0.019531,-0.003906,0.011719
2899765000,0.999390,-0.010010,0.033386,-0.000305,-0.019531,-0.003906,0.011719
2920315000,0.999390,-0.010010,0.033386,-0.000305,-0.019531,-0.003906,-0.027344
2949724000,0.999390,-0.010010,0.033386,-0.000305,-0.019531,0.035156,0.011719
2967702000,0.999390,-0.010010,0.033386,-0.000305,-0.019531,-0.003906,0.011719
2979495000,0.999390,-0.009949,0.033447,-0.000305,0.019531,-0.003906,0.011719
3000945000,0.999390,-0.010010,0.033447,-0.000305,-0.019531,-0.003906,0.011719
3019923000,0.999390,-0.009949,0.033447,-0.000305,0.019531,-0.003906,0.011719
3039542000,0.999390,-0.009949,0.033447,-0.000305,0.019531,-0.003906,0.011719
3060051000,0.999390,-0.010010,0.033447,-0.000305,0.019531,0.035156,0.011719
3082344000,0.999390,-0.010010,0.033447,-0.000305,0.019531,-0.003906,0.011719
3105534000,0.999390,-0.010010,0.033447,-0.000305,0.019531,-0.003906,0.011719
3119187000,0.999390,-0.010010,0.033447,-0.000305,0.019531,-0.003906,-0.027344
3149690000,0.999390,-0.010010,0.033447,-0.000305,-0.019531,-0.003906,0.011719
3167785000,0.999390,-0.009949,0.033447,-0.000305,0.019531,-0.003906,-0.027344
3179620000,0.999390,-0.009949,0.033447,-0.000305,-0.019531,-0.003906,0.011719
3199148000,0.999390,-0.010010,0.033447,-0.000305,-0.019531,-0.003906,0.011719
3229314000,0.999390,-0.009949,0.033447,-0.000366,0.019531,0.035156,0.011719
3238962000,0.999390,-0.009949,0.033447,-0.000366,-0.019531,-0.003906,0.050781
3258935000,0.999390,-0.009949,0.033447,-0.000305,-0.019531,-0.003906,0.011719
3278757000,0.999390,-0.009949,0.033447,-0.000305,0.019531,0.035156,0.011719
3309010000,0.999390,-0.009888,0.033447,-0.000305,0.019531,-0.003906,0.011719
3324818000,0.999390,-0.009888,0.033508,-0.000305,-0.019531,-0.003906,0.011719
3338890000,0.999390,-0.009888,0.033508,-0.000366,-0.019531,0.035156,-0.027344
3359100000,0.999390,-0.009888,0.033508,-0.000366,-0.019531,-0.011719,-0.027344
3384547000,0.999390,-0.009888,0.033508,-0.000366,-0.019531,-0.003906,0.011719
3398281000,0.999390,-0.009888,0.033508,-0.000305,-0.019531,-0.003906,0.011719
3418252000,0.999390,-0.009888,0.033508,-0.000305,0.019531,-0.003906,-0.027344
3442202000,0.999390,-0.009888,0.033508,-0.000305,-0.019531,-0.003906,0.011719
3458034000,0.999390,-0.009949,0.033508,-0.000305,0.019531,-0.003906,0.050781
3478649000,0.999390,-0.009949,0.033508,-0.000305,0.019531,-0.003906,0.050781
3508103000,0.999390,-0.009949,0.033508,-0.000305,-0.019531,0.035156,0.011719
3518187000,0.999390,-0.009949,0.033508,-0.000305,-0.019531,-0.003906,-0.027344
3538054000,0.999390,-0.009949,0.033508,-0.000305,0.019531,-0.003906,0.011719
3567772000,0.999390,-0.009949,0.033508,-0.000305,-0.019531,0.035156,0.011719
3578719000,0.999390,-0.009949,0.033508,-0.000305,-0.019531,-0.003906,0.011719
3598075000,0.999390,-0.009949,0.033508,-0.000305,0.019531,0.035156,0.011719
3622246000,0.999390,-0.009949,0.033508,-0.000305,0.019531,-0.003906,0.011719
3637967000,0.999390,-0.009949,0.033508,-0.000305,-0.019531,0.035156,0.011719
3657484000,0.999390,-0.009949,0.033508,-0.000305,0.019531,-0.003906,0.011719
3682062000,0.999390,-0.009949,0.033508,-0.000305,-0.019531,-0.003906,0.011719
3700517000,0.999390,-0.009949,0.033508,-0.000305,-0.019531,-0.003906,0.011719
3722781000,0.999390,-0.009949,0.033508,-0.000305,-0.019531,0.035156,0.011719
3738037000,0.999390,-0.009949,0.033508,-0.000305,0.019531,-0.003906,0.011719
3757777000,0.999390,-0.009949,0.033508,-0.000305,-0.019531,-0.003906,0.011719
3787212000,0.999390,-0.009949,0.033508,-0.000305,-0.019531,0.035156,0.082031
3797167000,0.999390,-0.009949,0.033508,-0.000305,-0.019531,-0.003906,-0.035156
3818335000,0.999390,-0.009949,0.033508,-0.000305,-0.054688,-0.003906,0.003906
3843481000,0.999390,-0.009949,0.033508,-0.000305,-0.019531,-0.003906,0.003906
3857161000,0.999390,-0.009949,0.033508,-0.000305,0.019531,-0.003906,0.003906
3876964000,0.999390,-0.009949,0.033508,-0.000305,-0.019531,0.035156,0.003906
3907326000,0.999390,-0.009949,0.033508,-0.000305,-0.019531,-0.003906,0.003906
3922696000,0.999390,-0.009949,0.033508,-0.000305,0.019531,-0.003906,0.003906
3936732000,0.999390,-0.009949,0.033508,-0.000305,-0.019531,-0.003906,0.003906
3957650000,0.999390,-0.009949,0.033508,-0.000305,0.019531,-0.003906,0.003906
3987808000,0.999390,-0.009949,0.033508,-0.000305,-0.019531,-0.003906,0.003906
3996401000,0.999390,-0.009949,0.033508,-0.000305,0.019531,0.035156,0.003906
4016734000,0.999390,-0.009949,0.033508,-0.000305,-0.019531,0.035156,0.003906
4046628000,0.999390,-0.009949,0.033508,-0.000305,-0.019531,-0.003906,-0.035156
4056297000,0.999390,-0.009949,0.033508,-0.000305,0.019531,-0.003906,0.003906
4086594000,0.999390,-0.009949,0.033508,-0.000305,0.019531,-0.003906,0.003906
4096470000,0.999390,-0.009949,0.033508,-0.000305,0.019531,-0.003906,0.003906
4116569000,0.999390,-0.009949,0.033508,-0.000305,0.019531,-0.003906,0.003906
4146611000,0.999390,-0.009949,0.033508,-0.000305,-0.019531,-0.003906,0.042969
4161866000,0.999390,-0.009949,0.033508,-0.000305,-0.019531,-0.003906,0.003906
4176191000,0.999390,-0.009949,0.033508,-0.000305,0.019531,-0.003906,0.003906
4196437000,0.999390,-0.009949,0.033508,-0.000305,-0.019531,-0.003906,0.003906
4226205000,0.999390,-0.009949,0.033508,-0.000305,-0.019531,0.035156,0.003906
4235844000,0.999390,-0.009949,0.033508,-0.000305,-0.019531,0.035156,0.003906
4255947000,0.999390,-0.009949,0.033508,-0.000305,0.019531,-0.003906,0.003906
4286309000,0.999390,-0.009949,0.033508,-0.000305,-0.019531,-0.003906,0.003906
4296416000,0.999390,-0.009949,0.033508,-0.000305,-0.019531,0.035156,0.003906
4315710000,0.999390,-0.009949,0.033508,-0.000305,-0.019531,-0.003906,0.003906
4346319000,0.999390,-0.009949,0.033508,-0.000305,0.019531,0.035156,-0.035156
4355541000,0.999390,-0.009949,0.033508,-0.000305,-0.019531,-0.003906,0.003906
4376268000,0.999390,-0.009949,0.033508,-0.000305,-0.019531,-0.003906,0.003906
4398210000,0.999390,-0.009949,0.033508,-0.000305,-0.019531,-0.003906,0.003906
4416120000,0.999390,-0.009949,0.033508,-0.000305,-0.019531,-0.003906,0.003906
4437720000,0.999390,-0.009949,0.033508,-0.000305,-0.019531,-0.003906,0.003906
4455620000,0.999390,-0.009949,0.033508,-0.000305,0.019531,-0.003906,0.003906
4476631000,0.999390,-0.009949,0.033508,-0.000305,0.019531,-0.003906,0.003906
4495646000,0.999390,-0.009949,0.033508,-0.000305,0.019531,-0.003906,0.003906
4525523000,0.999390,-0.009949,0.033508,-0.000305,0.019531,-0.003906,0.003906
4542415000,0.999390,-0.009949,0.033508,-0.000305,0.019531,0.035156,0.003906
4555279000,0.999390,-0.009949,0.033508,-0.000305,-0.019531,-0.003906,0.003906
4575607000,0.999390,-0.009949,0.033508,-0.000305,-0.019531,0.035156,0.003906
4595220000,0.999390,-0.009949,0.033508,-0.000305,0.019531,-0.003906,0.042969
4615041000,0.999390,-0.009949,0.033508,-0.000305,0.019531,-0.003906,0.003906
4635678000,0.999390,-0.009949,0.033508,-0.000305,0.019531,0.035156,0.003906
4665104000,0.999390,-0.009949,0.033508,-0.000305,-0.019531,-0.003906,0.003906
4675189000,0.999390,-0.009949,0.033508,-0.000305,0.019531,-0.003906,0.003906
4695459000,0.999390,-0.009949,0.033508,-0.000305,-0.019531,0.027344,0.003906
4715959000,0.999390,-0.009949,0.033508,-0.000305,0.019531,0.027344,0.003906
4743600000,0.999390,-0.009949,0.033508,-0.000305,0.019531,-0.011719,0.003906
4754414000,0.999390,-0.009949,0.033508,-0.000305,-0.019531,0.027344,0.003906
4780125000,0.999390,-0.009949,0.033508,-0.000305,0.019531,-0.011719,0.003906
4800432000,0.999390,-0.009949,0.033508,-0.000305,-0.019531,-0.011719,0.003906
4814743000,0.999390,-0.009949,0.033508,-0.000305,0.019531,-0.011719,0.003906
4844395000,0.999390,-0.009949,0.033508,-0.000305,-0.019531,0.027344,0.003906
4864909000,0.999390,-0.009949,0.033508,-0.000305,-0.019531,-0.011719,0.003906
4881649000,0.999390,-0.009949,0.033508,-0.000305,0.019531,-0.011719,0.003906
4894880000,0.999390,-0.009949,0.033508,-0.000305,0.019531,-0.011719,0.003906
4915096000,0.999390,-0.009949,0.033508,-0.000305,0.019531,0.027344,0.042969
4944334000,0.999390,-0.009949,0.033508,-0.000366,-0.027344,-0.011719,0.003906
4953688000,0.999390,-0.009949,0.033508,-0.000305,0.011719,0.027344,0.003906
4975051000,0.999390,-0.009949,0.033508,-0.000305,-0.027344,-0.011719,0.003906
4995016000,0.999390,-0.010010,0.033508,-0.000305,-0.027344,-0.011719,0.003906
5024221000,0.999390,-0.009949,0.033508,-0.000366,0.011719,0.027344,0.003906
5033945000,0.999390,-0.009888,0.033508,-0.000366,0.011719,-0.011719,0.003906
5064045000,0.999390,-0.009888,0.033508,-0.000366,0.011719,-0.011719,0.003906
5074333000,0.999390,-0.009888,0.033508,-0.000366,-0.019531,0.027344,0.003906
5105616000,0.999390,-0.009888,0.033508,-0.000366,-0.019531,-0.011719,0.003906
5127872000,0.999390,-0.009888,0.033508,-0.000366,-0.019531,-0.011719,0.003906
5133809000,0.999390,-0.009888,0.033508,-0.000366,-0.019531,0.027344,0.003906
5164578000,0.999390,-0.009949,0.033508,-0.000366,0.019531,0.027344,0.003906
5183602000,0.999390,-0.009949,0.033508,-0.000366,-0.019531,0.027344,0.003906
5193302000,0.999390,-0.009949,0.033508,-0.000366,0.019531,0.027344,0.003906
5216923000,0.999390,-0.009949,0.033508,-0.000366,-0.019531,0.027344,0.003906
5234790000,0.999390,-0.009949,0.033447,-0.000366,0.019531,-0.011719,0.003906
5263614000,0.999390,-0.010010,0.033447,-0.000366,0.019531,-0.011719,0.003906
5273140000,0.999390,-0.010010,0.033447,-0.000366,-0.019531,0.027344,0.042969
5294664000,0.999390,-0.010010,0.033447,-0.000366,-0.019531,-0.011719,0.003906
5314652000,0.999390,-0.010010,0.033447,-0.000366,0.019531,0.027344,0.003906
5343097000,0.999390,-0.010071,0.033386,-0.000305,0.019531,-0.011719,0.003906
5353275000,0.999390,-0.010071,0.033386,-0.000305,0.019531,0.027344,0.003906
5374681000,0.999390,-0.010071,0.033386,-0.000366,-0.019531,-0.011719,-0.035156
5395418000,0.999390,-0.010071,0.033386,-0.000366,0.019531,-0.011719,-0.035156
5423295000,0.999390,-0.010010,0.033386,-0.000366,0.019531,-0.011719,0.003906
5433387000,0.999390,-0.010010,0.033386,-0.000366,0.019531,0.027344,0.042969
5465661000,0.999390,-0.010010,0.033386,-0.000366,0.019531,-0.011719,0.003906
5473235000,0.999390,-0.010010,0.033386,-0.000366,0.019531,-0.011719,0.042969
5503349000,0.999390,-0.010010,0.033386,-0.000366,-0.027344,-0.011719,0.003906
5513411000,0.999390,-0.010010,0.033386,-0.000366,0.011719,0.027344,0.003906
5545436000,0.999390,-0.010010,0.033447,-0.000366,0.011719,0.027344,0.003906
5562771000,0.999390,-0.009949,0.033447,-0.000366,0.011719,-0.011719,0.003906
5579508000,0.999390,-0.009949,0.033447,-0.000366,-0.027344,0.027344,0.042969
5594142000,0.999390,-0.010010,0.033447,-0.000366,-0.027344,0.027344,0.042969
5622641000,0.999390,-0.010010,0.033386,-0.000366,0.011719,-0.011719,0.003906
5642524000,0.999390,-0.010010,0.033386,-0.000366,-0.027344,0.027344,0.003906
5653142000,0.999390,-0.010071,0.033386,-0.000366,-0.027344,-0.011719,0.042969
5682426000,0.999390,-0.010071,0.033386,-0.000366,-0.027344,0.027344,-0.003906
5702084000,0.999390,-0.010010,0.033386,-0.000366,0.011719,-0.011719,-0.003906
5723198000,0.999390,-0.010010,0.033386,-0.000366,0.011719,0.027344,-0.003906
5741936000,0.999390,-0.010010,0.033386,-0.000366,0.011719,-0.011719,-0.003906
5762223000,0.999390,-0.010010,0.033386,-0.000427,0.011719,-0.011719,-0.003906
5781840000,0.999390,-0.010010,0.033447,-0.000427,-0.027344,0.027344,0.035156
5802284000,0.999390,-0.010010,0.033447,-0.000427,0.011719,-0.011719,-0.003906
5825003000,0.999390,-0.010010,0.033447,-0.000366,-0.027344,0.027344,-0.003906
5848414000,0.999390,-0.010010,0.033447,-0.000366,0.011719,0.027344,-0.003906
5862057000,0.999390,-0.010010,0.033447,-0.000366,0.011719,-0.011719,-0.003906
5882363000,0.999390,-0.010010,0.033386,-0.000366,0.011719,0.027344,-0.003906
5902184000,0.999390,-0.010010,0.033386,-0.000366,-0.027344,0.027344,-0.003906
5927361000,0.999390,-0.010010,0.033386,-0.000366,0.011719,0.027344,-0.042969
5941886000,0.999390,-0.010010,0.033386,-0.000366,0.011719,-0.011719,-0.003906
5961756000,0.999390,-0.010071,0.033386,-0.000366,-0.027344,0.027344,-0.003906
5981857000,0.999390,-0.010071,0.033386,-0.000366,0.011719,0.027344,-0.003906
6003261000,0.999390,-0.010071,0.033386,-0.000366,0.011719,-0.011719,-0.003906
6026183000,0.999390,-0.010071,0.033386,-0.000366,0.011719,-0.011719,0.003906
6041071000,0.999390,-0.010071,0.033386,-0.000366,-0.027344,-0.011719,0.003906
6061580000,0.999390,-0.010071,0.033386,-0.000366,-0.027344,0.019531,-0.035156
6081828000,0.999390,-0.010071,0.033386,-0.000366,0.011719,0.019531,0.003906
6107249000,0.999390,-0.010071,0.033386,-0.000366,-0.027344,-0.019531,0.003906
6121354000,0.999390,-0.010071,0.033386,-0.000366,-0.027344,-0.019531,0.003906
6141351000,0.999390,-0.010071,0.033386,-0.000366,0.011719,-0.019531,0.003906
6161541000,0.999390,-0.010071,0.033447,-0.000366,-0.019531,-0.011719,0.003906
6185583000,0.999390,-0.010071,0.033386,-0.000427,-0.019531,0.027344,0.003906
6200675000,0.999390,-0.010010,0.033447,-0.000427,0.019531,0.027344,0.003906
6221589000,0.999390,-0.010010,0.033447,-0.000427,0.019531,0.027344,0.003906
6250839000,0.999390,-0.010010,0.033447,-0.000427,-0.019531,-0.011719,0.003906
6270471000,0.999390,-0.010010,0.033447,-0.000427,-0.019531,-0.011719,0.003906
6280384000,0.999390,-0.010010,0.033447,-0.000366,0.019531,-0.011719,0.003906
6300412000,0.999390,-0.010010,0.033447,-0.000427,0.019531,-0.011719,0.003906
6321403000,0.999390,-0.010010,0.033386,-0.000427,0.019531,-0.011719,0.003906
6347536000,0.999390,-0.010010,0.033386,-0.000427,0.019531,-0.011719,0.003906
6360857000,0.999390,-0.010010,0.033386,-0.000427,-0.019531,-0.011719,0.003906
6380154000,0.999390,-0.010010,0.033386,-0.000427,0.019531,-0.011719,0.003906
6410157000,0.999390,-0.009949,0.033386,-0.000366,-0.027344,-0.003906,0.003906
6426487000,0.999390,-0.009949,0.033386,-0.000427,0.011719,0.035156,0.042969
6440695000,0.999390,-0.009949,0.033386,-0.000427,0.011719,-0.003906,0.042969
6459904000,0.999390,-0.009949,0.033386,-0.000427,0.011719,0.027344,-0.003906
6480335000,0.999390,-0.009949,0.033386,-0.000427,-0.027344,-0.011719,0.035156
6501714000,0.999390,-0.009949,0.033386,-0.000427,0.011719,-0.011719,-0.003906
6526193000,0.999390,-0.009949,0.033386,-0.000427,-0.027344,-0.011719,-0.003906
6540037000,0.999390,-0.009949,0.033386,-0.000427,0.011719,0.027344,-0.003906
6559967000,0.999390,-0.010010,0.033386,-0.000488,-0.027344,-0.011719,0.035156
6581038000,0.999390,-0.010010,0.033386,-0.000488,-0.027344,-0.011719,0.035156
6607801000,0.999390,-0.009949,0.033386,-0.000488,0.011719,-0.011719,-0.003906
6619546000,0.999390,-0.010010,0.033386,-0.000488,0.011719,-0.011719,-0.003906
6639887000,0.999390,-0.010010,0.033386,-0.000488,0.011719,0.027344,-0.003906
6661614000,0.999390,-0.009949,0.033386,-0.000488,-0.027344,0.027344,-0.003906
6683633000,0.999390,-0.009949,0.033386,-0.000488,-0.027344,-0.011719,-0.003906
6700330000,0.999390,-0.009949,0.033386,-0.000488,0.011719,0.027344,-0.003906
6719174000,0.999390,-0.009949,0.033386,-0.000488,-0.027344,-0.011719,0.035156
6740000000,0.999390,-0.009949,0.033386,-0.000427,0.011719,-0.011719,-0.003906
6769443000,0.999390,-0.009949,0.033386,-0.000427,-0.027344,-0.011719,-0.003906
6779551000,0.999390,-0.009949,0.033386,-0.000427,0.011719,-0.011719,-0.003906
6799488000,0.999390,-0.009949,0.033386,-0.000488,-0.027344,-0.011719,-0.003906
6819588000,0.999390,-0.009949,0.033386,-0.000488,0.011719,-0.011719,-0.003906
6849275000,0.999390,-0.009888,0.033386,-0.000488,0.011719,-0.011719,-0.003906
6859297000,0.999390,-0.009888,0.033386,-0.000488,0.011719,0.027344,-0.003906
6878675000,0.999390,-0.009888,0.033386,-0.000488,-0.027344,0.027344,-0.003906
6898826000,0.999390,-0.009888,0.033386,-0.000488,0.011719,-0.011719,-0.003906
6928779000,0.999390,-0.009888,0.033386,-0.000488,-0.027344,0.027344,0.035156
6945686000,0.999390,-0.009888,0.033386,-0.000488,-0.027344,0.027344,-0.042969
6958004000,0.999390,-0.009888,0.033386,-0.000488,0.011719,0.027344,0.035156
6978475000,0.999390,-0.009888,0.033386,-0.000488,-0.027344,-0.011719,-0.003906
6998176000,0.999390,-0.009888,0.033386,-0.000488,0.011719,0.027344,-0.003906
7018861000,0.999390,-0.009888,0.033386,-0.000488,0.011719,0.027344,-0.003906
7040013000,0.999390,-0.009888,0.033386,-0.000488,-0.027344,-0.011719,-0.003906
7065435000,0.999390,-0.009888,0.033386,-0.000488,0.011719,0.027344,0.035156
7078665000,0.999390,-0.009888,0.033386,-0.000488,0.011719,0.027344,-0.003906
7097733000,0.999390,-0.009888,0.033386,-0.000488,0.011719,-0.011719,-0.003906
7118859000,0.999390,-0.009888,0.033386,-0.000488,0.011719,-0.011719,-0.003906
7142540000,0.999390,-0.009888,0.033386,-0.000488,-0.027344,0.027344,-0.003906
7158016000,0.999390,-0.009888,0.033386,-0.000488,0.011719,0.027344,-0.003906
7177814000,0.999390,-0.009888,0.033386,-0.000488,0.011719,-0.011719,-0.003906
7197868000,0.999390,-0.009888,0.033386,-0.000488,-0.027344,-0.011719,-0.003906
7217644000,0.999390,-0.009888,0.033386,-0.000488,-0.027344,0.027344,-0.003906
7237968000,0.999390,-0.009888,0.033386,-0.000488,-0.027344,0.027344,-0.003906
7257948000,0.999390,-0.009888,0.033386,-0.000488,0.011719,-0.011719,-0.003906
7287919000,0.999390,-0.009888,0.033386,-0.000488,0.011719,0.027344,-0.003906
7304018000,0.999390,-0.009888,0.033386,-0.000488,-0.027344,-0.011719,-0.003906
7317433000,0.999390,-0.009888,0.033386,-0.000488,0.011719,0.027344,-0.003906
7347409000,0.999390,-0.009888,0.033386,-0.000488,-0.027344,0.027344,-0.003906
7357498000,0.999390,-0.009888,0.033386,-0.000488,0.011719,-0.011719,-0.003906
7377974000,0.999390,-0.009888,0.033386,-0.000488,0.011719,-0.011719,-0.003906
7401667000,0.999390,-0.009888,0.033386,-0.000488,0.011719,-0.011719,-0.003906
7417943000,0.999390,-0.009888,0.033386,-0.000488,-0.027344,-0.011719,-0.003906
7437087000,0.999390,-0.009888,0.033386,-0.000488,-0.027344,-0.011719,0.035156
7457684000,0.999390,-0.009888,0.033386,-0.000488,-0.027344,0.027344,-0.003906
7487209000,0.999390,-0.009888,0.033386,-0.000488,-0.027344,-0.011719,-0.003906
7497689000,0.999390,-0.009888,0.033386,-0.000488,-0.027344,0.027344,-0.003906
7517049000,0.999390,-0.009888,0.033386,-0.000488,0.011719,0.027344,-0.003906
7536973000,0.999390,-0.009888,0.033386,-0.000488,0.011719,0.027344,0.035156
7566616000,0.999390,-0.009888,0.033386,-0.000488,0.011719,-0.011719,-0.003906
7576557000,0.999390,-0.009888,0.033386,-0.000488,-0.019531,-0.011719,-0.003906
7596669000,0.999390,-0.009888,0.033386,-0.000488,0.019531,0.027344,-0.003906
7626885000,0.999390,-0.009888,0.033386,-0.000488,0.011719,0.027344,-0.003906
7642218000,0.999390,-0.009888,0.033386,-0.000488,-0.027344,-0.011719,-0.003906
7656454000,0.999390,-0.009888,0.033386,-0.000488,-0.027344,-0.011719,-0.003906
7677184000,0.999390,-0.009888,0.033386,-0.000488,0.011719,-0.011719,-0.003906
7696647000,0.999390,-0.009888,0.033386,-0.000488,-0.027344,0.027344,-0.003906
7716567000,0.999390,-0.009888,0.033386,-0.000488,-0.027344,0.027344,-0.042969
7736155000,0.999390,-0.009888,0.033386,-0.000488,0.011719,0.027344,0.035156
7757371000,0.999390,-0.009888,0.033386,-0.000488,0.011719,0.027344,0.035156
7783592000,0.999390,-0.009888,0.033386,-0.000488,-0.027344,0.027344,-0.003906
7796427000,0.999390,-0.009888,0.033386,-0.000488,0.011719,-0.011719,-0.003906
7816159000,0.999390,-0.009888,0.033386,-0.000488,-0.027344,0.019531,-0.003906
7837196000,0.999390,-0.009888,0.033386,-0.000488,-0.027344,-0.019531,0.035156
7866063000,0.999390,-0.009888,0.033386,-0.000488,-0.027344,0.019531,-0.003906
7884030000,0.999390,-0.009888,0.033386,-0.000488,-0.027344,-0.019531,-0.003906
7896046000,0.999390,-0.009888,0.033386,-0.000488,-0.019531,0.019531,-0.003906
7915599000,0.999390,-0.009888,0.033447,-0.000488,-0.019531,0.011719,-0.003906
7946061000,0.999390,-0.009827,0.033447,-0.000488,0.019531,-0.027344,-0.003906
7955952000,0.999390,-0.009827,0.033447,-0.000488,0.019531,-0.027344,0.035156
7976510000,0.999390,-0.009827,0.033447,-0.000488,0.019531,0.011719,-0.003906
8005424000,0.999390,-0.009827,0.033447,-0.000488,0.019531,-0.027344,0.035156
8025300000,0.999390,-0.009827,0.033447,-0.000549,0.019531,0.011719,-0.003906
8035683000,0.999390,-0.009827,0.033447,-0.000549,-0.027344,-0.027344,-0.003906
8056003000,0.999390,-0.009827,0.033447,-0.000488,-0.027344,-0.019531,0.035156
8075656000,0.999390,-0.009888,0.033447,-0.000488,-0.027344,-0.019531,0.035156
8096792000,0.999390,-0.009827,0.033447,-0.000488,0.011719,-0.019531,-0.003906
8120888000,0.999390,-0.009888,0.033386,-0.000488,-0.027344,0.019531,-0.003906
8135985000,0.999390,-0.009888,0.033447,-0.000488,0.011719,-0.011719,-0.003906
8155923000,0.999390,-0.009827,0.033386,-0.000488,-0.027344,-0.019531,-0.003906
8181960000,0.999390,-0.009827,0.033386,-0.000488,-0.027344,-0.019531,0.035156
8195256000,0.999390,-0.009888,0.033386,-0.000488,0.011719,0.019531,-0.003906
8215421000,0.999390,-0.009888,0.033386,-0.000488,0.011719,-0.003906,0.027344
8236039000,0.999390,-0.009949,0.033386,-0.000488,-0.027344,-0.003906,-0.011719
8264639000,0.999390,-0.009949,0.033386,-0.000488,0.011719,-0.003906,0.027344
8275645000,0.999390,-0.009949,0.033386,-0.000488,0.011719,0.035156,-0.011719
8295636000,0.999390,-0.009949,0.033386,-0.000488,0.011719,-0.011719,-0.011719
8315525000,0.999390,-0.009888,0.033386,-0.000427,0.011719,0.027344,0.027344
8341547000,0.999390,-0.009888,0.033386,-0.000488,-0.027344,-0.011719,-0.011719
8355568000,0.999390,-0.009949,0.033386,-0.000427,-0.027344,-0.011719,0.027344
8376036000,0.999390,-0.009949,0.033386,-0.000427,-0.027344,-0.011719,-0.050781
8395362000,0.999390,-0.009949,0.033325,-0.000488,-0.027344,-0.011719,-0.011719
8415307000,0.999390,-0.009949,0.033325,-0.000427,0.011719,0.027344,-0.011719
8444621000,0.999390,-0.009949,0.033325,-0.000427,-0.027344,-0.011719,-0.011719
8454703000,0.999390,-0.009949,0.033325,-0.000427,0.011719,-0.011719,0.027344
8475007000,0.999390,-0.009949,0.033325,-0.000427,0.011719,-0.011719,-0.011719
8496038000,0.999390,-0.009949,0.033386,-0.000427,0.011719,-0.011719,-0.011719
8524258000,0.999390,-0.009888,0.033386,-0.000488,-0.027344,0.027344,-0.011719
8541124000,0.999390,-0.009888,0.033386,-0.000488,0.011719,-0.011719,-0.011719
8554783000,0.999390,-0.009888,0.033386,-0.000488,0.011719,0.027344,-0.003906
8575028000,0.999390,-0.009888,0.033386,-0.000488,-0.027344,-0.011719,0.035156
8604342000,0.999390,-0.009827,0.033386,-0.000488,-0.027344,0.019531,-0.003906
8620654000,0.999390,-0.009827,0.033447,-0.000488,-0.027344,-0.019531,-0.003906
8634635000,0.999390,-0.009827,0.033447,-0.000488,-0.027344,0.019531,-0.003906
8654994000,0.999390,-0.009827,0.033447,-0.000488,-0.027344,0.019531,-0.003906
8684451000,0.999390,-0.009827,0.033386,-0.000488,-0.027344,0.019531,-0.003906
8694214000,0.999390,-0.009766,0.033386,-0.000488,0.011719,-0.019531,-0.003906
8723489000,0.999390,-0.009827,0.033386,-0.000488,0.011719,0.019531,-0.003906
8740474000,0.999390,-0.009766,0.033447,-0.000488,0.011719,-0.019531,0.035156
8754417000,0.999390,-0.009766,0.033447,-0.000488,-0.027344,-0.019531,0.035156
8783680000,0.999390,-0.009766,0.033386,-0.000488,0.011719,0.019531,0.035156
8793504000,0.999390,-0.009766,0.033386,-0.000488,-0.027344,0.019531,0.035156
8814702000,0.999390,-0.009766,0.033447,-0.000488,0.011719,0.019531,-0.003906
8844257000,0.999390,-0.009827,0.033447,-0.000488,0.011719,0.019531,0.035156
8853243000,0.999390,-0.009827,0.033447,-0.000488,0.011719,-0.019531,-0.003906
8875273000,0.999390,-0.009827,0.033447,-0.000488,-0.027344,0.019531,-0.003906
8894142000,0.999390,-0.009827,0.033447,-0.000488,-0.027344,-0.019531,0.035156
8914655000,0.999390,-0.009827,0.033447,-0.000488,0.011719,0.019531,-0.003906
8943167000,0.999390,-0.009827,0.033447,-0.000488,0.011719,0.019531,-0.003906
8953237000,0.999390,-0.009827,0.033447,-0.000488,-0.027344,-0.019531,-0.003906
8974614000,0.999390,-0.009827,0.033447,-0.000488,-0.027344,-0.019531,0.035156
9004573000,0.999390,-0.009827,0.033447,-0.000488,0.011719,-0.019531,-0.003906
9013420000,0.999390,-0.009827,0.033447,-0.000488,0.011719,-0.019531,-0.003906
9035424000,0.999390,-0.009827,0.033447,-0.000488,-0.027344,-0.019531,-0.003906
9062627000,0.999390,-0.009827,0.033447,-0.000488,-0.027344,-0.011719,0.035156
9082154000,0.999390,-0.009827,0.033447,-0.000488,-0.027344,0.027344,0.035156
9093407000,0.999390,-0.009827,0.033447,-0.000488,0.011719,-0.011719,-0.003906
9122199000,0.999390,-0.009827,0.033447,-0.000488,-0.027344,-0.011719,-0.003906
9133259000,0.999390,-0.009827,0.033447,-0.000488,-0.027344,0.027344,-0.003906
9162529000,0.999390,-0.009827,0.033447,-0.000488,0.011719,-0.011719,0.035156
9182206000,0.999390,-0.009827,0.033447,-0.000488,-0.027344,0.027344,-0.011719
9193270000,0.999390,-0.009827,0.033447,-0.000488,0.011719,0.027344,-0.011719
9222316000,0.999390,-0.009827,0.033447,-0.000488,0.011719,0.027344,-0.011719
9242508000,0.999390,-0.009827,0.033447,-0.000488,-0.027344,0.027344,0.027344
9262601000,0.999390,-0.009827,0.033447,-0.000488,-0.027344,-0.011719,-0.011719
9282152000,0.999390,-0.009827,0.033447,-0.000488,-0.027344,-0.011719,0.027344
9293486000,0.999390,-0.009827,0.033447,-0.000488,-0.027344,0.027344,-0.011719
9322825000,0.999390,-0.009827,0.033447,-0.000488,-0.019531,-0.011719,-0.011719
9342398000,0.999390,-0.009827,0.033447,-0.000488,0.019531,-0.011719,-0.011719
9363941000,0.999390,-0.009827,0.033447,-0.000488,-0.019531,-0.011719,-0.011719
9373361000,0.999390,-0.009827,0.033447,-0.000488,0.019531,-0.011719,0.027344
9402857000,0.999390,-0.009827,0.033447,-0.000488,0.019531,-0.011719,-0.011719
9431759000,0.999390,-0.009827,0.033447,-0.000488,-0.019531,0.027344,-0.050781
9446763000,0.999390,-0.009827,0.033447,-0.000488,-0.019531,-0.011719,0.027344
9461077000,0.999390,-0.009827,0.033447,-0.000488,0.019531,-0.011719,0.035156
9486136000,0.999390,-0.009827,0.033447,-0.000488,-0.019531,0.027344,-0.003906
9501221000,0.999390,-0.009827,0.033447,-0.000488,0.019531,0.027344,-0.003906
9526186000,0.999390,-0.009827,0.033447,-0.000488,-0.019531,-0.011719,-0.042969
9541540000,0.999390,-0.009827,0.033447,-0.000488,0.019531,0.027344,-0.003906
9561431000,0.999390,-0.009827,0.033447,-0.000488,0.019531,-0.011719,0.035156
9580962000,0.999390,-0.009827,0.033447,-0.000488,0.019531,-0.011719,0.035156
9601378000,0.999390,-0.009827,0.033447,-0.000488,-0.019531,0.027344,-0.003906
9626613000,0.999390,-0.009827,0.033447,-0.000488,-0.019531,-0.011719,-0.003906
9640669000,0.999390,-0.009827,0.033447,-0.000488,0.019531,-0.011719,-0.003906
9664466000,0.999390,-0.009827,0.033447,-0.000488,0.019531,-0.011719,0.035156
9683823000,0.999390,-0.009827,0.033447,-0.000488,0.011719,-0.011719,-0.003906
9700856000,0.999390,-0.009827,0.033447,-0.000488,0.011719,0.027344,0.035156
9723506000,0.999390,-0.009827,0.033447,-0.000488,0.011719,-0.011719,-0.003906
9742387000,0.999390,-0.009827,0.033447,-0.000488,-0.027344,0.027344,-0.003906
9767525000,0.999390,-0.009827,0.033447,-0.000488,0.011719,0.027344,-0.003906
9780771000,0.999390,-0.009827,0.033447,-0.000488,0.011719,0.027344,-0.003906
9800268000,0.999390,-0.009827,0.033447,-0.000488,0.011719,0.027344,-0.003906
9820320000,0.999390,-0.009827,0.033447,-0.000488,0.011719,0.027344,0.035156
9846114000,0.999390,-0.009827,0.033447,-0.000488,0.011719,0.027344,0.035156
9860414000,0.999390,-0.009827,0.033447,-0.000488,-0.027344,0.019531,-0.003906
9880094000,0.999390,-0.009827,0.033447,-0.000488,-0.027344,-0.019531,-0.003906
9904455000,0.999390,-0.009827,0.033447,-0.000488,0.011719,-0.019531,0.035156
9931423000,0.999390,-0.009827,0.033447,-0.000488,0.011719,-0.019531,-0.042969
9940028000,0.999390,-0.009827,0.033447,-0.000488,0.011719,0.019531,0.035156
9961185000,0.999390,-0.009827,0.033447,-0.000488,0.011719,-0.019531,-0.003906
9984931000,0.999390,-0.009827,0.033447,-0.000488,-0.027344,0.019531,-0.003906
10000440000,0.999390,-0.009827,0.033447,-0.000488,-0.027344,-0.019531,-0.003906
10019937000,0.999390,-0.009827,0.033447,-0.000488,-0.027344,0.019531,-0.003906
10040501000,0.999390,-0.009827,0.033447,-0.000488,0.011719,-0.019531,-0.003906
10062964000,0.999390,-0.009827,0.033447,-0.000488,-0.027344,-0.019531,0.035156
10079703000,0.999390,-0.009827,0.033447,-0.000488,0.011719,0.019531,-0.003906
10100176000,0.999390,-0.009827,0.033447,-0.000488,0.011719,-0.019531,-0.003906
10132599000,0.999390,-0.009827,0.033447,-0.000488,0.011719,0.019531,-0.003906
10139622000,0.999390,-0.009827,0.033447,-0.000488,-0.027344,-0.019531,-0.003906
10159421000,0.999390,-0.009827,0.033447,-0.000488,0.011719,0.019531,-0.003906
10186150000,0.999390,-0.009827,0.033447,-0.000488,-0.027344,-0.019531,0.035156
10199794000,0.999390,-0.009827,0.033447,-0.000488,0.011719,0.019531,-0.003906
10219500000,0.999390,-0.009827,0.033447,-0.000488,0.011719,-0.019531,0.035156
10249127000,0.999390,-0.009827,0.033447,-0.000488,0.011719,0.019531,-0.003906
10259323000,0.999390,-0.009827,0.033447,-0.000488,0.011719,0.019531,-0.003906
10279020000,0.999390,-0.009827,0.033447,-0.000488,0.011719,0.019531,-0.003906
10299392000,0.999390,-0.009827,0.033447,-0.000488,0.011719,-0.019531,0.035156
10329476000,0.999390,-0.009827,0.033447,-0.000488,-0.027344,0.019531,-0.003906
10346087000,0.999390,-0.009827,0.033447,-0.000488,0.011719,0.019531,-0.003906
10358792000,0.999390,-0.009827,0.033447,-0.000488,-0.027344,-0.019531,-0.003906
10378985000,0.999390,-0.009827,0.033447,-0.000488,0.011719,0.019531,-0.003906
10399988000,0.999390,-0.009827,0.033447,-0.000488,-0.027344,0.019531,-0.003906
10424524000,0.999390,-0.009827,0.033447,-0.000488,0.011719,0.019531,-0.003906
10439748000,0.999390,-0.009827,0.033447,-0.000488,0.011719,0.019531,-0.003906
10459226000,0.999390,-0.009827,0.033447,-0.000488,0.011719,-0.019531,0.035156
10489586000,0.999390,-0.009827,0.033447,-0.000488,-0.027344,0.019531,-0.003906
10504459000,0.999390,-0.009827,0.033447,-0.000488,-0.027344,0.019531,0.035156
10518684000,0.999390,-0.009827,0.033447,-0.000488,0.011719,-0.019531,-0.003906
10543623000,0.999390,-0.009827,0.033447,-0.000488,-0.027344,-0.019531,-0.003906
10558174000,0.999390,-0.009827,0.033447,-0.000488,0.011719,-0.019531,0.035156
10584229000,0.999390,-0.009827,0.033447,-0.000488,0.011719,-0.019531,0.035156
10598049000,0.999390,-0.009827,0.033447,-0.000488,0.011719,0.019531,-0.003906
10618049000,0.999390,-0.009827,0.033447,-0.000488,-0.027344,-0.019531,-0.003906
10643097000,0.999390,-0.009827,0.033447,-0.000488,0.011719,0.019531,-0.003906
10664477000,0.999390,-0.009827,0.033447,-0.000488,0.011719,-0.019531,-0.003906
10678270000,0.999390,-0.009827,0.033447,-0.000488,-0.027344,0.019531,0.035156
10699105000,0.999390,-0.009827,0.033447,-0.000488,0.011719,0.019531,0.035156
10718934000,0.999390,-0.009827,0.033447,-0.000488,-0.027344,-0.019531,0.035156
10747499000,0.999390,-0.009827,0.033447,-0.000488,0.011719,0.019531,-0.003906
10757980000,0.999390,-0.009827,0.033447,-0.000488,-0.027344,0.019531,0.035156
10787918000,0.999390,-0.009827,0.033447,-0.000488,0.011719,-0.019531,-0.003906
10798262000,0.999390,-0.009827,0.033447,-0.000488,0.011719,-0.019531,0.035156
10818165000,0.999390,-0.009827,0.033447,-0.000488,0.011719,0.019531,-0.003906
10843551000,0.999390,-0.009827,0.033447,-0.000488,0.011719,-0.019531,0.035156
10857632000,0.999390,-0.009827,0.033447,-0.000488,0.011719,0.019531,-0.003906
10877356000,0.999390,-0.009827,0.033447,-0.000488,-0.027344,-0.019531,-0.003906
10903963000,0.999390,-0.009827,0.033447,-0.000488,0.011719,-0.019531,-0.003906
10917198000,0.999390,-0.009827,0.033447,-0.000488,0.011719,0.019531,-0.003906
10938144000,0.999390,-0.009827,0.033447,-0.000488,-0.027344,0.019531,-0.003906
10958989000,0.999390,-0.009827,0.033447,-0.000488,-0.027344,0.019531,-0.003906
10983176000,0.999390,-0.009827,0.033447,-0.000488,0.011719,0.019531,-0.003906
10997303000,0.999390,-0.009827,0.033447,-0.000488,0.011719,0.019531,-0.003906
11017406000,0.999390,-0.009827,0.033447,-0.000488,-0.027344,0.019531,0.035156
11037290000,0.999390,-0.009827,0.033447,-0.000488,-0.027344,-0.019531,-0.003906
11066916000,0.999390,-0.009827,0.033447,-0.000488,0.011719,0.019531,-0.003906
11077392000,0.999390,-0.009827,0.033447,-0.000488,0.011719,-0.019531,0.035156
11096814000,0.999390,-0.009827,0.033447,-0.000488,0.011719,0.019531,-0.003906
11118309000,0.999390,-0.009827,0.033447,-0.000488,0.011719,-0.019531,0.035156
11142249000,0.999390,-0.009827,0.033447,-0.000488,-0.027344,0.019531,0.035156
11158078000,0.999390,-0.009827,0.033447,-0.000488,0.011719,-0.019531,-0.003906
11177817000,0.999390,-0.009827,0.033447,-0.000488,-0.027344,-0.019531,0.035156
11196475000,0.999390,-0.009827,0.033447,-0.000488,0.011719,0.019531,0.035156
11217634000,0.999390,-0.009827,0.033447,-0.000488,-0.027344,0.019531,0.035156
11238571000,0.999390,-0.009827,0.033447,-0.000488,0.011719,0.019531,0.035156
11265066000,0.999390,-0.009827,0.033447,-0.000488,-0.027344,0.019531,0.027344
11276367000,0.999390,-0.009827,0.033447,-0.000488,0.011719,-0.019531,-0.011719
11296136000,0.999390,-0.009827,0.033447,-0.000488,0.050781,-0.019531,-0.011719
11316949000,0.999390,-0.009827,0.033447,-0.000488,0.011719,0.019531,-0.011719
11347250000,0.999390,-0.009827,0.033447,-0.000488,-0.027344,0.019531,-0.011719
11364748000,0.999390,-0.009827,0.033447,-0.000488,-0.027344,-0.019531,0.027344
11376056000,0.999390,-0.009827,0.033447,-0.000488,0.011719,0.019531,0.027344
11397035000,0.999390,-0.009827,0.033447,-0.000488,0.011719,-0.019531,-0.011719
11426796000,0.999390,-0.009827,0.033447,-0.000488,0.011719,-0.019531,-0.011719
11436014000,0.999390,-0.009827,0.033447,-0.000488,-0.027344,-0.019531,0.027344
11456157000,0.999390,-0.009827,0.033508,-0.000488,0.011719,0.132812,0.140625
11476793000,0.999390,-0.009827,0.033447,-0.000488,-0.027344,0.019531,0.027344
11502345000,0.999390,-0.009766,0.033508,-0.000488,-0.027344,0.019531,-0.011719
11515733000,0.999390,-0.009766,0.033508,-0.000488,0.011719,-0.019531,0.027344
11536390000,0.999390,-0.009766,0.033508,-0.000488,0.011719,0.019531,-0.011719
11556624000,0.999390,-0.009766,0.033508,-0.000488,0.011719,0.019531,-0.011719
11585977000,0.999390,-0.009766,0.033508,-0.000488,-0.027344,0.019531,-0.011719
11595844000,0.999390,-0.009827,0.033508,-0.000488,0.011719,-0.019531,0.027344
11615989000,0.999390,-0.009827,0.033508,-0.000488,0.011719,0.019531,0.027344
11635760000,0.999390,-0.009827,0.033508,-0.000488,-0.027344,0.019531,0.027344
11667886000,0.999390,-0.009827,0.033508,-0.000427,-0.027344,0.019531,0.027344
11675558000,0.999390,-0.009827,0.033508,-0.000427,-0.027344,-0.019531,-0.011719
11696024000,0.999390,-0.009827,0.033508,-0.000427,0.011719,0.019531,-0.011719
11716053000,0.999390,-0.009766,0.033508,-0.000488,-0.027344,0.019531,-0.011719
11746185000,0.999390,-0.009766,0.033508,-0.000488,0.011719,0.019531,0.027344
11755594000,0.999390,-0.009766,0.033508,-0.000488,0.011719,-0.019531,0.027344
11775907000,0.999390,-0.009766,0.033508,-0.000488,-0.027344,-0.019531,-0.011719
11796467000,0.999390,-0.009766,0.033508,-0.000488,0.011719,0.019531,-0.011719
11820713000,0.999390,-0.009705,0.033569,-0.000488,0.011719,-0.019531,-0.011719
11835641000,0.999390,-0.009705,0.033508,-0.000488,0.011719,0.019531,-0.011719
11855228000,0.999390,-0.009705,0.033508,-0.000549,0.011719,-0.019531,0.027344
11880097000,0.999390,-0.009705,0.033508,-0.000549,0.011719,0.019531,0.027344
11895156000,0.999390,-0.009705,0.033508,-0.000549,0.011719,0.019531,-0.011719
11915503000,0.999390,-0.009705,0.033508,-0.000549,0.011719,-0.019531,0.027344
11935488000,0.999390,-0.009705,0.033508,-0.000549,-0.027344,0.019531,-0.011719
11955552000,0.999390,-0.009705,0.033508,-0.000549,0.011719,0.019531,0.027344
11985180000,0.999390,-0.009705,0.033508,-0.000549,-0.027344,-0.019531,0.027344
12001777000,0.999390,-0.009705,0.033508,-0.000549,0.011719,0.019531,0.027344
12015102000,0.999390,-0.009705,0.033508,-0.000549,0.011719,0.058594,0.066406
12035259000,0.999390,-0.009705,0.033569,-0.000549,-0.027344,-0.019531,-0.011719
12065119000,0.999390,-0.009766,0.033569,-0.000549,0.011719,0.011719,0.066406
12076242000,0.999390,-0.009705,0.033508,-0.000549,0.011719,0.011719,0.027344
12095128000,0.999390,-0.009705,0.033569,-0.000549,0.011719,0.050781,-0.011719
12124041000,0.999390,-0.009644,0.033508,-0.000549,0.011719,0.011719,-0.011719
12134394000,0.999390,-0.009644,0.033508,-0.000549,0.011719,0.011719,-0.011719
12154633000,0.999390,-0.009644,0.033569,-0.000549,0.011719,0.011719,-0.011719
12175343000,0.999390,-0.009644,0.033508,-0.000488,0.003906,0.011719,-0.011719
12204009000,0.999390,-0.009644,0.033508,-0.000488,-0.035156,-0.019531,-0.011719
12214726000,0.999390,-0.009644,0.033508,-0.000488,-0.035156,0.019531,-0.011719
12235023000,0.999390,-0.009705,0.033569,-0.000488,0.003906,0.019531,0.027344
12255017000,0.999390,-0.009827,0.033569,-0.000366,0.003906,-0.097656,-0.050781
12284019000,0.999390,-0.010559,0.033630,0.000793,0.320312,-0.308594,-0.089844
12294250000,0.999390,-0.011292,0.033752,0.002075,0.617188,-0.800781,-0.203125
12315049000,0.999329,-0.012695,0.034058,0.005554,0.378906,-0.546875,-0.003906
12334663000,0.999268,-0.013855,0.034180,0.008972,0.035156,0.113281,-0.003906
12364055000,0.999268,-0.014893,0.034180,0.011169,-0.070312,0.074219,-0.347656
12373817000,0.999207,-0.015137,0.034241,0.011658,0.035156,0.191406,0.300781
12394676000,0.999207,-0.015564,0.034302,0.012451,0.152344,0.007812,0.339844
12414619000,0.999207,-0.015869,0.034302,0.013245,0.042969,-0.015625,0.117188
12434912000,0.999146,-0.016357,0.034241,0.014404,0.234375,-0.093750,0.003906
12455160000,0.999146,-0.017883,0.033875,0.015686,0.535156,-0.269531,0.074219
12474695000,0.999146,-0.017761,0.033325,0.015564,1.214844,0.636719,-0.339844
12497695000,0.999268,-0.015442,0.032104,0.015625,1.398438,0.144531,0.082031
12514221000,0.999268,-0.015686,0.031189,0.015503,1.031250,0.488281,-0.847656
12534679000,0.999268,-0.015869,0.031128,0.015564,0.617188,-0.199219,1.566406
12555005000,0.999268,-0.015808,0.031189,0.015503,0.355469,0.902344,-0.082031
12574677000,0.999268,-0.015747,0.030945,0.015503,0.042969,-0.390625,0.457031
12594661000,0.999268,-0.015686,0.030945,0.015503,0.417969,0.105469,-0.121094
12614701000,0.999268,-0.015381,0.030823,0.015198,0.226562,-0.160156,0.035156
12643223000,0.999329,-0.015564,0.030090,0.014038,-0.171875,0.250000,-0.195312
12653345000,0.999329,-0.015625,0.029724,0.013489,-0.371094,0.097656,-0.003906
12682411000,0.999390,-0.015564,0.029297,0.012756,-0.570312,-0.093750,-0.011719
12702933000,0.999390,-0.015869,0.029114,0.012878,-0.234375,-0.167969,0.066406
12713305000,0.999390,-0.015869,0.028992,0.012817,-0.050781,0.023438,-0.242188
12734689000,0.999390,-0.016052,0.028625,0.012329,-0.242188,0.183594,0.027344
12762230000,0.999390,-0.016052,0.028442,0.012146,-0.289062,0.375000,-0.242188
12773282000,0.999390,-0.015869,0.028442,0.012085,-0.593750,-0.046875,0.292969
12802662000,0.999390,-0.015991,0.028381,0.012085,-0.679688,0.031250,0.101562
12823046000,0.999390,-0.016113,0.028320,0.012024,-0.679688,0.144531,0.066406
12841903000,0.999390,-0.016113,0.028198,0.011902,-0.679688,0.066406,0.027344
12866567000,0.999390,-0.016052,0.028137,0.011719,-0.488281,0.039062,-0.050781
12881893000,0.999390,-0.016174,0.028015,0.011658,-0.410156,0.031250,-0.011719
12901745000,0.999390,-0.016113,0.028015,0.011658,0.011719,0.039062,0.101562
12922146000,0.999390,-0.016113,0.027954,0.011658,-0.105469,-0.070312,-0.128906
12944781000,0.999390,-0.016174,0.027832,0.011719,-0.035156,-0.070312,-0.050781
12962187000,0.999390,-0.016174,0.027832,0.011658,-0.113281,0.160156,0.140625
12981979000,0.999390,-0.016235,0.027710,0.011597,-0.152344,0.046875,-0.011719
13001918000,0.999390,-0.016357,0.027588,0.011475,0.117188,0.121094,0.027344
13023507000,0.999451,-0.016235,0.027588,0.011475,0.148438,-0.031250,0.066406
13042109000,0.999451,-0.016296,0.027466,0.011414,0.109375,0.007812,-0.011719
13061675000,0.999451,-0.016296,0.027405,0.011230,-0.082031,0.046875,0.066406
13082025000,0.999451,-0.016296,0.027222,0.011108,-0.199219,-0.144531,-0.089844
13108659000,0.999451,-0.016296,0.027100,0.010925,-0.207031,0.199219,-0.011719
13121650000,0.999451,-0.016296,0.026917,0.010498,-0.128906,0.199219,-0.011719
13141508000,0.999451,-0.016296,0.026794,0.010315,-0.167969,-0.109375,0.101562
13165815000,0.999451,-0.016235,0.026733,0.010254,-0.175781,0.007812,0.101562
13181473000,0.999451,-0.016174,0.026611,0.010132,-0.058594,0.082031,0.019531
13203090000,0.999451,-0.016174,0.026489,0.010071,-0.167969,0.007812,-0.027344
13221622000,0.999451,-0.016235,0.026367,0.009949,0.140625,-0.070312,-0.027344
13247480000,0.999451,-0.016296,0.026245,0.009827,-0.242188,-0.039062,-0.011719
13261772000,0.999451,-0.016296,0.026184,0.009766,-0.195312,0.035156,0.027344
13281375000,0.999512,-0.016296,0.026062,0.009583,-0.265625,0.074219,0.066406
13310059000,0.999512,-0.016235,0.026001,0.009583,-0.496094,-0.117188,0.066406
13320742000,0.999512,-0.016174,0.026001,0.009583,0.097656,0.000000,0.027344
13342390000,0.999512,-0.016052,0.026062,0.009583,0.097656,0.000000,0.140625
13360861000,0.999512,-0.016052,0.026062,0.009583,0.105469,0.000000,-0.058594
13381402000,0.999512,-0.016113,0.026001,0.009521,0.105469,0.000000,0.019531
13401620000,0.999512,-0.016113,0.026001,0.009521,0.066406,0.000000,-0.019531
13427434000,0.999512,-0.016113,0.026001,0.009521,0.097656,0.035156,0.019531
13441137000,0.999512,-0.016052,0.025940,0.009460,0.097656,0.000000,0.019531
13461162000,0.999512,-0.016113,0.025940,0.009460,0.050781,0.035156,0.019531
13480302000,0.999512,-0.016113,0.025940,0.009460,0.089844,0.000000,-0.019531
13506694000,0.999512,-0.016174,0.025940,0.009460,0.042969,0.035156,-0.019531
13520565000,0.999512,-0.016174,0.025940,0.009460,0.082031,-0.007812,0.019531
13546767000,0.999512,-0.016174,0.025940,0.009460,0.074219,-0.007812,0.019531
13560940000,0.999512,-0.016235,0.025879,0.009399,0.074219,0.035156,0.019531
13580726000,0.999512,-0.016174,0.025879,0.009460,0.027344,0.000000,0.019531
13600782000,0.999512,-0.016174,0.025879,0.009460,0.027344,0.035156,-0.019531
13624726000,0.999512,-0.016174,0.025879,0.009460,0.058594,0.000000,-0.019531
13640258000,0.999512,-0.016174,0.025879,0.009460,0.058594,0.000000,0.019531
13660264000,0.999512,-0.016235,0.025879,0.009460,0.050781,0.000000,-0.019531
13680541000,0.999512,-0.016235,0.025818,0.009460,0.011719,0.000000,0.019531
13701117000,0.999512,-0.016235,0.025879,0.009460,0.003906,0.000000,-0.019531
13720496000,0.999512,-0.016235,0.025879,0.009460,0.042969,0.000000,0.019531
13740172000,0.999512,-0.016235,0.025818,0.009460,0.003906,0.035156,0.019531
13760691000,0.999512,-0.016235,0.025818,0.009460,0.003906,0.000000,-0.019531
13785360000,0.999512,-0.016235,0.025818,0.009460,-0.003906,0.000000,0.019531
13800258000,0.999512,-0.016174,0.025818,0.009460,-0.003906,0.000000,-0.019531
13819694000,0.999512,-0.016235,0.025818,0.009460,0.035156,0.000000,-0.019531
13840103000,0.999512,-0.016174,0.025818,0.009460,0.035156,0.035156,0.019531
13864219000,0.999512,-0.016174,0.025818,0.009460,0.035156,-0.007812,0.019531
13879700000,0.999512,-0.016174,0.025818,0.009460,0.027344,0.035156,-0.019531
13899593000,0.999512,-0.016174,0.025879,0.009521,-0.011719,0.000000,0.019531
13921499000,0.999512,-0.016174,0.025818,0.009460,0.027344,0.000000,0.019531
13949303000,0.999512,-0.016174,0.025818,0.009460,0.027344,0.000000,0.019531
13966232000,0.999512,-0.016174,0.025879,0.009460,0.027344,-0.007812,0.019531
13979682000,0.999512,-0.016174,0.025818,0.009460,0.027344,-0.007812,0.019531
13998881000,0.999512,-0.016174,0.025818,0.009521,-0.011719,0.000000,0.019531
14029171000,0.999512,-0.016174,0.025818,0.009521,-0.019531,0.027344,0.011719
14039069000,0.999512,-0.016174,0.025818,0.009521,0.019531,0.035156,0.011719
14059298000,0.999512,-0.016174,0.025818,0.009521,0.019531,-0.007812,0.011719
14079268000,0.999512,-0.016174,0.025818,0.009460,0.019531,-0.046875,-0.027344
14102563000,0.999512,-0.016174,0.025818,0.009521,-0.019531,-0.007812,0.011719
14118786000,0.999512,-0.016174,0.025818,0.009521,-0.019531,-0.007812,0.011719
14138762000,0.999512,-0.016174,0.025818,0.009521,0.019531,-0.007812,0.011719
14158525000,0.999512,-0.016174,0.025818,0.009521,0.019531,-0.007812,0.011719
14188301000,0.999512,-0.016174,0.025818,0.009521,0.019531,0.000000,0.011719
14198842000,0.999512,-0.016174,0.025818,0.009521,-0.019531,0.000000,0.011719
14218942000,0.999512,-0.016235,0.025757,0.009521,0.019531,0.035156,0.011719
14239618000,0.999512,-0.016235,0.025757,0.009521,0.019531,0.035156,0.011719
14268694000,0.999512,-0.016235,0.025757,0.009521,-0.019531,0.000000,0.011719
14283862000,0.999512,-0.016174,0.025818,0.009521,-0.019531,0.000000,0.011719
14298141000,0.999512,-0.016174,0.025818,0.009460,-0.019531,0.035156,0.011719
14318662000,0.999512,-0.016174,0.025818,0.009460,0.019531,-0.007812,0.011719
14339425000,0.999512,-0.016235,0.025818,0.009460,0.019531,-0.007812,0.011719
14362557000,0.999512,-0.016235,0.025818,0.009460,0.019531,0.027344,0.011719
14378345000,0.999512,-0.016235,0.025818,0.009460,-0.019531,-0.007812,0.011719
14398742000,0.999512,-0.016235,0.025818,0.009460,-0.019531,-0.007812,0.011719
14418463000,0.999512,-0.016235,0.025757,0.009460,0.019531,-0.007812,0.011719
14447549000,0.999512,-0.016235,0.025757,0.009460,0.019531,0.027344,0.011719
14458172000,0.999512,-0.016235,0.025757,0.009460,0.019531,-0.007812,0.011719
14477780000,0.999512,-0.016235,0.025757,0.009460,-0.019531,-0.007812,0.011719
14497667000,0.999512,-0.016174,0.025757,0.009460,-0.019531,-0.007812,0.011719
14527345000,0.999512,-0.016174,0.025757,0.009460,0.019531,-0.007812,-0.027344
14538010000,0.999512,-0.016174,0.025757,0.009460,0.019531,-0.015625,0.011719
14558210000,0.999512,-0.016174,0.025757,0.009460,-0.019531,0.019531,0.011719
14578378000,0.999512,-0.016113,0.025757,0.009460,-0.019531,-0.015625,-0.027344
14607357000,0.999512,-0.016113,0.025757,0.009521,0.019531,-0.015625,0.011719
14624388000,0.999512,-0.016113,0.025757,0.009521,0.019531,-0.015625,0.011719
14638050000,0.999512,-0.016174,0.025757,0.009521,-0.019531,0.019531,0.011719
14658127000,0.999512,-0.016174,0.025757,0.009521,0.019531,-0.007812,0.011719
14677614000,0.999512,-0.016174,0.025696,0.009521,-0.019531,-0.007812,0.011719
14697751000,0.999512,-0.016174,0.025696,0.009521,-0.019531,-0.007812,0.011719
14717495000,0.999512,-0.016113,0.025757,0.009521,0.019531,-0.007812,0.011719
14746288000,0.999512,-0.016113,0.025757,0.009521,0.019531,-0.007812,-0.027344
14754031000,0.999512,-0.016113,0.025757,0.009521,0.019531,-0.007812,0.011719
14775700000,0.999512,-0.016113,0.025757,0.009521,0.019531,0.027344,-0.027344
14799777000,0.999512,-0.016113,0.025757,0.009521,0.019531,-0.007812,-0.027344
14813740000,0.999512,-0.016174,0.025757,0.009521,0.019531,-0.007812,-0.027344
14835480000,0.999512,-0.016174,0.025757,0.009521,0.019531,0.000000,0.011719
14855461000,0.999512,-0.016174,0.025757,0.009521,-0.019531,0.000000,-0.027344
14876886000,0.999512,-0.016235,0.025696,0.009521,-0.019531,0.000000,0.011719
14899740000,0.999512,-0.016235,0.025696,0.009521,0.019531,0.000000,-0.027344
14915262000,0.999512,-0.016235,0.025696,0.009521,0.019531,0.000000,0.011719
14935528000,0.999512,-0.016174,0.025696,0.009521,-0.019531,0.000000,-0.027344
14956949000,0.999512,-0.016235,0.025696,0.009583,-0.019531,0.000000,-0.019531
14980937000,0.999512,-0.016235,0.025696,0.009583,-0.019531,0.000000,0.019531
14995466000,0.999512,-0.016235,0.025696,0.009583,-0.019531,0.035156,0.019531
15015507000,0.999512,-0.016235,0.025696,0.009583,0.019531,0.000000,0.011719
15040587000,0.999512,-0.016235,0.025635,0.009583,0.019531,0.000000,0.011719
15054570000,0.999512,-0.016235,0.025635,0.009521,0.019531,0.000000,0.011719
15075415000,0.999512,-0.016235,0.025635,0.009521,0.019531,0.000000,0.011719
15095877000,0.999512,-0.016235,0.025635,0.009583,0.019531,0.000000,-0.027344
15123473000,0.999512,-0.016235,0.025635,0.009521,-0.027344,0.000000,0.011719
15134204000,0.999512,-0.016296,0.025635,0.009521,0.019531,0.000000,0.011719
15156350000,0.999512,-0.016296,0.025635,0.009521,0.011719,0.000000,0.011719
15175102000,0.999512,-0.016296,0.025574,0.009583,0.011719,0.000000,-0.027344
15195150000,0.999512,-0.016296,0.025574,0.009521,0.011719,0.000000,-0.027344
15215107000,0.999512,-0.016235,0.025574,0.009521,0.011719,0.000000,0.019531
15242165000,0.999512,-0.016296,0.025574,0.009521,0.011719,0.000000,0.019531
15255201000,0.999512,-0.016296,0.025574,0.009583,0.011719,0.000000,-0.019531
15274911000,0.999512,-0.016296,0.025574,0.009583,0.011719,0.000000,0.019531
15295302000,0.999512,-0.016235,0.025574,0.009583,0.011719,0.000000,0.019531
15318196000,0.999512,-0.016296,0.025574,0.009521,-0.027344,0.035156,-0.019531
15339686000,0.999512,-0.016296,0.025513,0.009521,0.011719,0.000000,0.019531
15358269000,0.999512,-0.016296,0.025513,0.009521,0.011719,0.000000,0.011719
15373873000,0.999512,-0.016296,0.025513,0.009521,0.011719,0.000000,0.011719
15401123000,0.999512,-0.016296,0.025513,0.009521,-0.027344,0.035156,-0.027344
15413511000,0.999512,-0.016296,0.025513,0.009521,0.019531,0.000000,-0.027344
15434701000,0.999512,-0.016296,0.025513,0.009521,0.019531,0.000000,-0.027344
15457121000,0.999512,-0.016296,0.025513,0.009521,0.019531,0.000000,0.019531
15477581000,0.999512,-0.016357,0.025513,0.009460,0.019531,0.000000,0.019531
15502041000,0.999512,-0.016357,0.025513,0.009460,-0.027344,0.000000,0.019531
15515727000,0.999512,-0.016357,0.025513,0.009460,0.019531,0.035156,0.019531
15535497000,0.999512,-0.016357,0.025513,0.009460,0.019531,0.000000,-0.019531
15561809000,0.999512,-0.016357,0.025574,0.009399,0.019531,0.000000,0.019531
15575315000,0.999512,-0.016418,0.025513,0.009399,0.019531,-0.007812,-0.019531
15595472000,0.999512,-0.016357,0.025513,0.009399,0.019531,-0.007812,-0.019531
15624867000,0.999512,-0.016357,0.025513,0.009399,0.011719,-0.007812,0.019531
15642001000,0.999512,-0.016357,0.025513,0.009399,0.011719,-0.007812,0.019531
15668632000,0.999512,-0.016357,0.025513,0.009338,0.011719,-0.007812,0.019531
15674550000,0.999512,-0.016296,0.025513,0.009338,0.011719,-0.007812,0.019531
15695103000,0.999512,-0.016357,0.025513,0.009338,0.011719,-0.007812,0.019531
15724217000,0.999512,-0.016357,0.025574,0.009338,-0.027344,-0.007812,-0.019531
15741044000,0.999512,-0.016357,0.025513,0.009338,-0.027344,-0.007812,-0.019531
15754595000,0.999512,-0.016357,0.025574,0.009338,-0.027344,-0.007812,-0.019531
15775236000,0.999512,-0.016357,0.025513,0.009338,-0.027344,-0.007812,-0.019531
15803803000,0.999512,-0.016357,0.025513,0.009338,0.019531,0.035156,0.019531
15814428000,0.999512,-0.016357,0.025513,0.009338,0.019531,0.027344,0.019531
15835175000,0.999512,-0.016357,0.025513,0.009338,-0.019531,-0.007812,0.019531
15855085000,0.999512,-0.016418,0.025513,0.009338,0.019531,-0.007812,-0.019531
15883771000,0.999512,-0.016357,0.025513,0.009338,0.019531,-0.007812,0.019531
15894267000,0.999512,-0.016357,0.025513,0.009338,0.019531,-0.007812,0.019531
15914589000,0.999512,-0.016418,0.025513,0.009338,0.019531,-0.007812,0.019531
15943371000,0.999512,-0.016418,0.025513,0.009338,-0.019531,-0.007812,0.019531
15953948000,0.999512,-0.016418,0.025513,0.009338,0.019531,-0.007812,-0.019531
15974997000,0.999512,-0.016418,0.025513,0.009338,0.019531,-0.007812,0.019531
15994664000,0.999512,-0.016418,0.025513,0.009338,-0.019531,0.027344,-0.019531
16023154000,0.999512,-0.016418,0.025513,0.009338,0.019531,-0.007812,-0.019531
16033273000,0.999512,-0.016418,0.025513,0.009338,0.019531,-0.007812,0.019531
16054629000,0.999512,-0.016418,0.025513,0.009338,0.019531,-0.007812,-0.019531
16076177000,0.999512,-0.016418,0.025513,0.009338,-0.019531,0.027344,0.019531
16103272000,0.999512,-0.016418,0.025513,0.009338,-0.019531,-0.007812,0.019531
16113273000,0.999512,-0.016418,0.025513,0.009338,-0.019531,-0.007812,0.019531
16134640000,0.999512,-0.016418,0.025513,0.009338,0.019531,-0.007812,-0.019531
16154646000,0.999512,-0.016418,0.025513,0.009338,0.019531,-0.007812,0.019531
16182777000,0.999512,-0.016418,0.025513,0.009338,-0.019531,0.027344,0.019531
16193227000,0.999512,-0.016418,0.025513,0.009338,0.019531,0.027344,-0.019531
16215083000,0.999512,-0.016418,0.025513,0.009338,0.019531,-0.007812,-0.019531
16234762000,0.999512,-0.016418,0.025513,0.009338,-0.019531,-0.007812,-0.019531
16263162000,0.999512,-0.016418,0.025513,0.009338,0.019531,-0.007812,0.019531
16274655000,0.999512,-0.016418,0.025513,0.009338,0.011719,0.027344,-0.019531
16308252000,0.999512,-0.016418,0.025513,0.009338,0.011719,-0.007812,0.019531
16322759000,0.999512,-0.016418,0.025513,0.009338,0.011719,-0.007812,0.019531
16342630000,0.999512,-0.016418,0.025513,0.009338,0.011719,0.027344,0.019531
16353208000,0.999512,-0.016418,0.025513,0.009338,0.011719,-0.007812,0.019531
16377334000,0.999512,-0.016418,0.025513,0.009338,0.011719,-0.007812,0.058594
16401970000,0.999512,-0.016418,0.025513,0.009338,0.011719,-0.007812,-0.019531
16422260000,0.999512,-0.016418,0.025513,0.009338,0.011719,-0.007812,0.019531
16443542000,0.999512,-0.016418,0.025513,0.009338,-0.027344,-0.007812,0.019531
16453358000,0.999512,-0.016418,0.025513,0.009338,0.011719,-0.007812,-0.019531
16474682000,0.999512,-0.016418,0.025513,0.009338,0.011719,-0.007812,0.019531
16499876000,0.999512,-0.016418,0.025513,0.009338,0.011719,-0.007812,0.019531
16529184000,0.999512,-0.016418,0.025513,0.009338,0.011719,-0.007812,-0.019531
16541808000,0.999512,-0.016418,0.025513,0.009338,0.011719,-0.007812,0.019531
16561719000,0.999512,-0.016418,0.025513,0.009338,-0.027344,-0.007812,0.019531
16573347000,0.999512,-0.016418,0.025513,0.009338,-0.027344,-0.007812,-0.019531
16601784000,0.999512,-0.016418,0.025513,0.009338,-0.027344,-0.007812,-0.019531
16622186000,0.999512,-0.016418,0.025513,0.009338,0.019531,-0.007812,0.019531
16641623000,0.999512,-0.016418,0.025513,0.009338,0.019531,0.000000,-0.019531
16667856000,0.999512,-0.016418,0.025513,0.009338,0.019531,0.000000,0.019531
16681928000,0.999512,-0.016418,0.025513,0.009338,0.019531,0.000000,0.019531
16701166000,0.999512,-0.016418,0.025513,0.009338,0.019531,0.000000,0.019531
16724786000,0.999512,-0.016418,0.025513,0.009338,0.019531,0.000000,-0.019531
16733267000,0.999512,-0.016418,0.025513,0.009338,0.019531,0.000000,0.019531
16761452000,0.999512,-0.016418,0.025513,0.009338,0.011719,0.035156,0.019531
16781268000,0.999512,-0.016418,0.025513,0.009338,0.011719,0.000000,0.019531
16801285000,0.999512,-0.016418,0.025513,0.009338,0.011719,0.000000,0.019531
16821155000,0.999512,-0.016418,0.025513,0.009338,-0.027344,-0.007812,-0.019531
16840958000,0.999512,-0.016418,0.025513,0.009338,-0.027344,-0.007812,-0.019531
16861258000,0.999512,-0.016418,0.025513,0.009338,-0.027344,-0.007812,0.019531
16883888000,0.999512,-0.016418,0.025513,0.009338,0.019531,-0.007812,-0.019531
16900854000,0.999512,-0.016418,0.025513,0.009338,0.019531,-0.007812,0.019531
16920807000,0.999512,-0.016418,0.025513,0.009338,0.019531,-0.007812,-0.019531
16940825000,0.999512,-0.016418,0.025513,0.009338,-0.019531,0.000000,0.019531
16962906000,0.999512,-0.016418,0.025513,0.009338,-0.019531,0.000000,0.019531
16981082000,0.999512,-0.016418,0.025513,0.009338,0.019531,0.000000,0.019531
17000510000,0.999512,-0.016418,0.025513,0.009338,-0.019531,0.000000,0.019531
17020945000,0.999512,-0.016418,0.025513,0.009338,0.019531,0.000000,0.019531
17044975000,0.999512,-0.016418,0.025513,0.009338,0.019531,0.000000,0.019531
17060702000,0.999512,-0.016418,0.025513,0.009338,0.019531,0.000000,0.019531
17080165000,0.999512,-0.016418,0.025513,0.009338,0.019531,0.000000,-0.019531
17106091000,0.999512,-0.016418,0.025513,0.009338,0.019531,0.000000,0.019531
17120564000,0.999512,-0.016418,0.025513,0.009338,-0.019531,0.000000,-0.019531
17140337000,0.999512,-0.016418,0.025513,0.009338,-0.019531,0.000000,0.019531
17162113000,0.999512,-0.016418,0.025513,0.009338,-0.019531,0.000000,0.019531
17186866000,0.999512,-0.016418,0.025513,0.009338,-0.019531,0.000000,0.019531
17200137000,0.999512,-0.016418,0.025513,0.009338,0.019531,0.000000,-0.019531
17220277000,0.999512,-0.016418,0.025513,0.009338,0.019531,0.000000,0.019531
17242589000,0.999512,-0.016418,0.025513,0.009338,0.019531,0.000000,0.019531
17260308000,0.999512,-0.016418,0.025513,0.009338,0.019531,0.000000,0.019531
17280306000,0.999512,-0.016418,0.025513,0.009338,0.019531,0.000000,-0.019531
17301113000,0.999512,-0.016418,0.025513,0.009338,0.019531,0.027344,-0.019531
17329702000,0.999512,-0.016418,0.025513,0.009338,-0.019531,0.027344,0.019531
17345948000,0.999512,-0.016418,0.025513,0.009338,-0.019531,0.027344,-0.019531
17359854000,0.999512,-0.016418,0.025513,0.009338,0.019531,-0.007812,0.019531
17379331000,0.999512,-0.016418,0.025513,0.009338,0.019531,-0.007812,0.058594
17405192000,0.999512,-0.016418,0.025513,0.009338,0.019531,-0.007812,0.019531
17419697000,0.999512,-0.016418,0.025513,0.009338,-0.019531,-0.007812,-0.019531
17439589000,0.999512,-0.016418,0.025513,0.009338,0.019531,-0.007812,0.019531
17460598000,0.999512,-0.016418,0.025513,0.009338,-0.019531,-0.007812,-0.019531
17484091000,0.999512,-0.016418,0.025513,0.009338,0.019531,-0.007812,0.019531
17498976000,0.999512,-0.016418,0.025513,0.009338,-0.019531,-0.007812,0.019531
17518952000,0.999512,-0.016418,0.025513,0.009338,0.019531,-0.007812,-0.019531
17539809000,0.999512,-0.016418,0.025513,0.009338,0.019531,-0.007812,0.019531
17558892000,0.999512,-0.016418,0.025513,0.009338,-0.019531,-0.007812,0.019531
17578942000,0.999512,-0.016418,0.025513,0.009338,0.019531,-0.007812,0.019531
17603309000,0.999512,-0.016418,0.025513,0.009338,-0.019531,-0.007812,-0.019531
17618956000,0.999512,-0.016418,0.025513,0.009338,0.019531,-0.007812,-0.019531
17638858000,0.999512,-0.016418,0.025513,0.009338,0.019531,-0.007812,0.019531
17658969000,0.999512,-0.016418,0.025513,0.009338,0.019531,-0.007812,0.019531
17688844000,0.999512,-0.016418,0.025513,0.009338,-0.019531,-0.007812,-0.019531
17698600000,0.999512,-0.016418,0.025513,0.009338,0.019531,-0.007812,-0.019531
17718773000,0.999512,-0.016418,0.025513,0.009338,0.019531,0.000000,0.019531
17738534000,0.999512,-0.016418,0.025513,0.009338,0.019531,0.000000,-0.019531
17758636000,0.999512,-0.016418,0.025513,0.009338,0.019531,0.000000,-0.019531
17778554000,0.999512,-0.016418,0.025513,0.009338,0.019531,0.000000,0.019531
17802790000,0.999512,-0.016418,0.025513,0.009338,-0.019531,0.000000,0.019531
17818161000,0.999512,-0.016418,0.025513,0.009338,0.019531,0.000000,-0.019531
17838908000,0.999512,-0.016418,0.025513,0.009338,0.019531,0.000000,0.019531
17858510000,0.999512,-0.016418,0.025513,0.009338,-0.019531,0.000000,0.019531
17880969000,0.999512,-0.016418,0.025513,0.009338,0.019531,0.035156,0.019531
17898350000,0.999512,-0.016418,0.025513,0.009338,0.019531,0.000000,0.019531
17918367000,0.999512,-0.016418,0.025513,0.009338,-0.019531,0.000000,0.058594
17938028000,0.999512,-0.016418,0.025513,0.009338,-0.019531,0.000000,0.011719
17968413000,0.999512,-0.016418,0.025513,0.009338,-0.019531,0.000000,0.011719
17985325000,0.999512,-0.016418,0.025513,0.009338,0.019531,0.027344,0.011719
17997766000,0.999512,-0.016418,0.025513,0.009338,0.019531,-0.007812,0.011719
18031281000,0.999512,-0.016418,0.025513,0.009338,0.019531,-0.007812,-0.027344
18048158000,0.999512,-0.016418,0.025513,0.009338,0.019531,-0.007812,-0.027344
18058189000,0.999512,-0.016418,0.025513,0.009338,-0.019531,-0.007812,-0.027344
18077493000,0.999512,-0.016418,0.025513,0.009338,0.019531,-0.007812,0.011719
18097722000,0.999512,-0.016418,0.025513,0.009338,0.019531,-0.007812,0.011719
18126032000,0.999512,-0.016418,0.025513,0.009338,-0.019531,0.027344,0.019531
18137496000,0.999512,-0.016418,0.025513,0.009338,-0.019531,-0.007812,0.019531
18157962000,0.999512,-0.016418,0.025513,0.009338,0.019531,-0.007812,-0.019531
18187699000,0.999512,-0.016418,0.025513,0.009338,-0.019531,0.027344,0.019531
18197622000,0.999512,-0.016418,0.025513,0.009338,-0.019531,-0.007812,-0.019531
18217243000,0.999512,-0.016418,0.025513,0.009338,0.019531,-0.007812,-0.019531
18236978000,0.999512,-0.016418,0.025513,0.009338,0.019531,0.027344,0.019531
18267011000,0.999512,-0.016418,0.025513,0.009338,-0.019531,-0.007812,-0.019531
18277605000,0.999512,-0.016418,0.025513,0.009338,0.019531,-0.007812,0.019531
18297088000,0.999512,-0.016418,0.025513,0.009338,0.019531,-0.007812,-0.019531
18327604000,0.999512,-0.016418,0.025513,0.009338,-0.019531,-0.007812,0.019531
18341170000,0.999512,-0.016418,0.025513,0.009338,-0.019531,-0.007812,0.019531
18356718000,0.999512,-0.016418,0.025513,0.009338,0.019531,-0.007812,0.019531
18376844000,0.999512,-0.016418,0.025513,0.009338,0.019531,0.027344,-0.019531
18398928000,0.999512,-0.016418,0.025513,0.009338,-0.019531,-0.007812,0.019531
18416504000,0.999512,-0.016418,0.025513,0.009338,0.019531,-0.007812,0.019531
18437191000,0.999512,-0.016418,0.025513,0.009338,0.019531,-0.007812,0.011719
18466966000,0.999512,-0.016418,0.025513,0.009338,-0.019531,-0.007812,0.011719
18476541000,0.999512,-0.016418,0.025513,0.009338,0.019531,-0.007812,0.011719
18496492000,0.999512,-0.016418,0.025513,0.009338,0.019531,-0.007812,0.011719
18516655000,0.999512,-0.016418,0.025513,0.009338,0.019531,-0.007812,0.011719
18548031000,0.999512,-0.016418,0.025513,0.009338,0.019531,-0.007812,-0.027344
18556724000,0.999512,-0.016418,0.025513,0.009338,0.011719,-0.007812,0.011719
18576080000,0.999512,-0.016418,0.025513,0.009338,0.011719,-0.007812,0.011719
18606080000,0.999512,-0.016418,0.025513,0.009338,-0.027344,0.027344,-0.019531
18615939000,0.999512,-0.016418,0.025513,0.009338,0.011719,-0.007812,-0.019531
18646234000,0.999512,-0.016418,0.025513,0.009338,-0.027344,-0.007812,0.019531
18655871000,0.999512,-0.016418,0.025513,0.009338,0.011719,-0.007812,0.019531
18676454000,0.999512,-0.016418,0.025513,0.009338,0.019531,-0.007812,-0.019531
18695981000,0.999512,-0.016418,0.025513,0.009338,-0.019531,0.027344,-0.019531
18716681000,0.999512,-0.016418,0.025513,0.009338,0.019531,-0.007812,-0.019531
18746275000,0.999512,-0.016418,0.025513,0.009338,0.019531,-0.007812,-0.019531
18755609000,0.999512,-0.016418,0.025513,0.009338,0.019531,0.027344,0.019531
18776391000,0.999512,-0.016418,0.025513,0.009338,-0.019531,-0.007812,0.019531
18807524000,0.999512,-0.016418,0.025513,0.009338,0.019531,-0.007812,0.019531
18816154000,0.999512,-0.016418,0.025513,0.009338,-0.019531,-0.007812,-0.019531
18845601000,0.999512,-0.016418,0.025513,0.009338,0.019531,-0.046875,-0.019531
18865464000,0.999512,-0.016418,0.025513,0.009338,0.019531,-0.007812,-0.019531
18875694000,0.999512,-0.016418,0.025513,0.009338,0.019531,-0.007812,0.019531
18895683000,0.999512,-0.016418,0.025513,0.009338,0.011719,-0.007812,0.019531
18915521000,0.999512,-0.016418,0.025513,0.009338,0.011719,0.027344,0.019531
18945400000,0.999512,-0.016418,0.025513,0.009338,-0.027344,0.027344,0.019531
18955327000,0.999512,-0.016418,0.025513,0.009338,0.011719,-0.007812,0.019531
18985583000,0.999512,-0.016418,0.025513,0.009338,0.011719,-0.007812,0.019531
18995346000,0.999512,-0.016418,0.025513,0.009338,-0.027344,-0.007812,0.019531
19015307000,0.999512,-0.016418,0.025513,0.009338,0.011719,-0.007812,0.058594
19035243000,0.999512,-0.016418,0.025513,0.009338,0.011719,-0.007812,0.019531
19066084000,0.999512,-0.016418,0.025513,0.009338,-0.027344,-0.007812,0.019531
19080749000,0.999512,-0.016418,0.025513,0.009338,0.011719,0.027344,0.011719
19095153000,0.999512,-0.016418,0.025513,0.009338,-0.027344,0.027344,0.011719
19115475000,0.999512,-0.016418,0.025513,0.009338,-0.027344,0.027344,0.011719
19144900000,0.999512,-0.016418,0.025513,0.009338,0.019531,-0.007812,0.011719
19165155000,0.999512,-0.016418,0.025513,0.009338,-0.019531,-0.007812,-0.027344
19174980000,0.999512,-0.016418,0.025513,0.009338,0.019531,-0.007812,0.011719
19195448000,0.999512,-0.016418,0.025513,0.009338,0.019531,-0.007812,0.011719
19224534000,0.999512,-0.016418,0.025513,0.009338,0.019531,-0.007812,0.011719
19241694000,0.999512,-0.016418,0.025513,0.009338,0.019531,-0.007812,0.011719
19255198000,0.999512,-0.016418,0.025513,0.009338,-0.019531,-0.007812,0.011719
19275214000,0.999512,-0.016418,0.025513,0.009338,0.019531,-0.007812,0.011719
19305028000,0.999512,-0.016418,0.025513,0.009338,-0.019531,-0.007812,0.011719
19314418000,0.999512,-0.016418,0.025513,0.009338,0.019531,-0.007812,0.011719
19335048000,0.999512,-0.016418,0.025513,0.009338,0.019531,-0.007812,0.011719
19354740000,0.999512,-0.016418,0.025513,0.009338,-0.019531,-0.007812,0.011719
19384960000,0.999512,-0.016418,0.025513,0.009338,-0.019531,-0.007812,-0.027344
19401187000,0.999512,-0.016418,0.025513,0.009338,-0.019531,-0.007812,-0.027344
19414678000,0.999512,-0.016418,0.025513,0.009338,-0.019531,0.027344,0.011719
19443735000,0.999512,-0.016418,0.025513,0.009338,0.019531,-0.007812,0.011719
19464202000,0.999512,-0.016418,0.025513,0.009338,-0.019531,-0.007812,0.011719
19473956000,0.999512,-0.016418,0.025513,0.009338,0.019531,-0.007812,0.011719
19494883000,0.999512,-0.016418,0.025513,0.009338,0.019531,-0.007812,0.011719
19514679000,0.999512,-0.016418,0.025513,0.009338,0.019531,0.027344,0.011719
19543490000,0.999512,-0.016418,0.025513,0.009338,0.019531,-0.007812,0.011719
19563687000,0.999512,-0.016418,0.025513,0.009338,0.019531,0.027344,-0.027344
19573722000,0.999512,-0.016418,0.025513,0.009338,-0.019531,-0.007812,0.011719
19594629000,0.999512,-0.016418,0.025513,0.009338,0.019531,0.027344,0.011719
19614686000,0.999512,-0.016418,0.025513,0.009338,0.019531,-0.007812,0.011719
19634646000,0.999512,-0.016418,0.025513,0.009338,0.019531,-0.007812,0.011719
19660191000,0.999512,-0.016418,0.025513,0.009338,-0.019531,0.027344,0.011719
19674275000,0.999512,-0.016418,0.025513,0.009338,0.019531,-0.007812,0.050781
19694383000,0.999512,-0.016418,0.025513,0.009338,0.019531,-0.007812,0.011719
19715490000,0.999512,-0.016418,0.025513,0.009338,-0.019531,-0.007812,-0.027344
19742933000,0.999512,-0.016418,0.025513,0.009338,0.019531,-0.007812,0.011719
19753571000,0.999512,-0.016418,0.025513,0.009338,0.019531,-0.007812,0.011719
19775445000,0.999512,-0.016418,0.025513,0.009338,-0.019531,-0.007812,-0.027344
19794741000,0.999512,-0.016418,0.025513,0.009338,0.019531,-0.007812,-0.027344
19822743000,0.999512,-0.016418,0.025513,0.009338,0.019531,-0.007812,0.011719
19833430000,0.999512,-0.016418,0.025513,0.009338,0.019531,-0.007812,0.011719
19869477000,0.999512,-0.016418,0.025513,0.009338,0.011719,-0.007812,0.011719
19882662000,0.999512,-0.016418,0.025513,0.009338,0.011719,-0.007812,-0.027344
19903329000,0.999512,-0.016418,0.025513,0.009338,0.011719,-0.007812,0.011719
19919229000,0.999512,-0.016418,0.025513,0.009338,0.011719,-0.007812,-0.027344
19946401000,0.999512,-0.016418,0.025513,0.009338,0.011719,0.027344,0.011719
19953369000,0.999512,-0.016418,0.025513,0.009338,-0.027344,-0.007812,0.011719
19983256000,0.999512,-0.016418,0.025513,0.009338,0.011719,-0.007812,-0.027344
20002494000,0.999512,-0.016418,0.025513,0.009338,-0.027344,-0.007812,-0.027344
20013333000,0.999512,-0.016418,0.025513,0.009338,0.011719,0.027344,0.011719
20044508000,0.999512,-0.016418,0.025513,0.009338,0.011719,-0.007812,-0.019531
20066097000,0.999512,-0.016418,0.025513,0.009338,0.011719,-0.007812,0.058594
20082197000,0.999512,-0.016418,0.025513,0.009338,-0.027344,-0.007812,-0.019531
20106027000,0.999512,-0.016418,0.025513,0.009338,0.011719,-0.007812,-0.058594
20121992000,0.999512,-0.016418,0.025513,0.009338,0.011719,-0.007812,0.058594
20141958000,0.999512,-0.016418,0.025513,0.009338,0.011719,-0.046875,-0.058594
20162227000,0.999512,-0.016418,0.025513,0.009338,-0.027344,-0.007812,-0.019531
20185413000,0.999512,-0.016418,0.025513,0.009338,0.019531,-0.085938,0.058594
20202753000,0.999512,-0.016418,0.025513,0.009338,0.019531,-0.007812,0.019531
20221504000,0.999512,-0.016418,0.025513,0.009338,0.019531,-0.007812,0.058594
20241974000,0.999512,-0.016418,0.025513,0.009338,0.019531,-0.007812,-0.019531
20261815000,0.999512,-0.016418,0.025513,0.009338,0.019531,-0.007812,-0.019531
20281796000,0.999512,-0.016418,0.025513,0.009338,0.011719,-0.007812,-0.019531
20301152000,0.999512,-0.016418,0.025513,0.009338,0.011719,-0.007812,0.019531
20328189000,0.999512,-0.016418,0.025513,0.009338,0.011719,0.027344,0.019531
20341849000,0.999512,-0.016479,0.025513,0.009521,0.316406,-0.125000,0.019531
20361922000,0.999451,-0.016724,0.025635,0.010315,1.593750,-0.339844,0.164062
20382170000,0.999451,-0.017029,0.025879,0.011169,2.054688,-0.140625,-0.066406
20406500000,0.999451,-0.017151,0.025757,0.011475,2.007812,0.222656,-0.027344
20421555000,0.999451,-0.017029,0.025146,0.011475,1.808594,0.222656,0.093750
20441424000,0.999512,-0.017578,0.023865,0.012146,1.355469,-0.160156,-0.640625
20461307000,0.999512,-0.016907,0.023987,0.012268,0.144531,3.484375,0.203125
20484983000,0.999512,-0.016541,0.024048,0.012451,0.675781,-1.226562,-0.640625
20501526000,0.999512,-0.016968,0.023743,0.012390,-0.468750,-0.046875,-0.144531
20521105000,0.999512,-0.017029,0.023621,0.012329,-0.484375,-0.160156,-0.136719
20541391000,0.999512,-0.016846,0.023621,0.011963,-0.835938,-0.117188,0.515625
20567765000,0.999512,-0.016846,0.023376,0.010803,-1.027344,0.421875,-0.144531
20581537000,0.999512,-0.016846,0.023254,0.009827,-1.082031,-0.574219,0.316406
20601073000,0.999512,-0.016846,0.023193,0.009827,-1.082031,0.382812,-0.105469
20621700000,0.999512,-0.016968,0.023071,0.009827,-0.667969,0.000000,-0.144531
20645925000,0.999512,-0.016968,0.022949,0.010193,-0.628906,0.191406,-0.179688
20660656000,0.999512,-0.016907,0.023010,0.010254,-0.707031,-0.144531,0.011719
20680746000,0.999573,-0.016785,0.023010,0.010254,-0.484375,-0.031250,-0.296875
20700729000,0.999573,-0.016724,0.023010,0.010254,-0.523438,0.000000,-0.488281
20723666000,0.999512,-0.016846,0.022949,0.010254,-0.675781,0.000000,-0.144531
20740540000,0.999512,-0.016785,0.022949,0.010315,-0.636719,-0.117188,0.242188
20761428000,0.999512,-0.016907,0.022949,0.010254,-0.332031,0.000000,-0.066406
20788148000,0.999512,-0.017212,0.022766,0.010254,-0.367188,0.121094,-0.218750
20800339000,0.999512,-0.017151,0.022766,0.010254,-0.523438,0.082031,-0.144531
20820196000,0.999573,-0.017029,0.022827,0.010193,-0.445312,-0.031250,0.050781
20841727000,0.999512,-0.017029,0.022827,0.010254,-0.406250,0.046875,-0.027344
20868051000,0.999512,-0.017029,0.022827,0.010254,-0.101562,0.046875,0.011719
20880423000,0.999512,-0.017090,0.022888,0.010254,-0.101562,0.046875,-0.066406
20900047000,0.999512,-0.017090,0.022827,0.010254,-0.101562,0.007812,-0.027344
20920101000,0.999512,-0.017151,0.022827,0.010193,-0.101562,0.007812,0.011719
20940090000,0.999512,-0.017090,0.022888,0.010193,-0.101562,0.046875,0.011719
20960330000,0.999512,-0.017029,0.022949,0.010193,-0.101562,0.046875,-0.066406
20987804000,0.999573,-0.017090,0.022766,0.010132,-0.062500,0.082031,-0.105469
20999819000,0.999512,-0.017395,0.022644,0.010132,-0.292969,0.429688,-0.679688
21021315000,0.999573,-0.017334,0.022644,0.010132,-0.214844,0.160156,-0.144531
21039689000,0.999512,-0.017334,0.022644,0.010132,-0.062500,-0.070312,0.242188
21059338000,0.999573,-0.017273,0.022644,0.010132,-0.101562,0.046875,-0.027344
21079278000,0.999573,-0.017334,0.022644,0.010071,-0.101562,0.007812,0.011719
21100483000,0.999573,-0.017334,0.022644,0.010132,-0.101562,0.007812,0.011719
21126079000,0.999573,-0.017273,0.022644,0.010132,-0.101562,0.007812,0.050781
21139452000,0.999573,-0.017273,0.022644,0.010132,-0.101562,0.046875,-0.027344
21159416000,0.999573,-0.017273,0.022644,0.010132,-0.093750,0.007812,0.050781
21191987000,0.999573,-0.017273,0.022583,0.010132,-0.093750,0.046875,0.011719
21205469000,0.999573,-0.017273,0.022583,0.010132,-0.093750,0.046875,0.011719
21219163000,0.999573,-0.017273,0.022583,0.010132,-0.093750,0.007812,0.011719
21238915000,0.999573,-0.017334,0.022583,0.010132,-0.093750,0.007812,0.011719
21260576000,0.999573,-0.017334,0.022583,0.010132,-0.093750,0.046875,0.011719
21285183000,0.999573,-0.017334,0.022583,0.010132,-0.093750,0.007812,0.011719
21299377000,0.999573,-0.017334,0.022583,0.010132,-0.093750,0.046875,-0.027344
21319176000,0.999512,-0.017395,0.022583,0.010132,-0.093750,0.046875,0.011719
21340311000,0.999573,-0.017334,0.022583,0.010132,-0.128906,0.046875,0.050781
21364673000,0.999573,-0.017395,0.022583,0.010132,0.031250,-0.023438,0.011719
21379272000,0.999573,-0.017334,0.022583,0.010132,0.031250,-0.023438,0.011719
21399868000,0.999573,-0.017395,0.022583,0.010132,-0.007812,-0.023438,0.011719
21418565000,0.999573,-0.017395,0.022583,0.010132,0.031250,-0.023438,-0.027344
21438691000,0.999573,-0.017395,0.022583,0.010132,-0.007812,0.015625,0.011719
21458861000,0.999573,-0.017334,0.022583,0.010132,-0.042969,0.015625,-0.027344
21481751000,0.999573,-0.017273,0.022583,0.010071,-0.007812,-0.023438,-0.027344
21498147000,0.999573,-0.017273,0.022644,0.010071,0.000000,0.015625,0.019531
21518612000,0.999573,-0.017273,0.022644,0.010071,0.000000,0.015625,0.011719
21538761000,0.999573,-0.017273,0.022644,0.010071,0.000000,-0.023438,0.019531
21558403000,0.999573,-0.017273,0.022644,0.010071,0.000000,-0.023438,0.019531
21578442000,0.999573,-0.017273,0.022583,0.010071,0.000000,-0.023438,-0.027344
21605495000,0.999573,-0.017212,0.022583,0.010071,0.031250,-0.023438,0.011719
21618290000,0.999573,-0.017212,0.022644,0.010071,-0.007812,-0.023438,0.011719
21638185000,0.999573,-0.017212,0.022644,0.010071,0.000000,-0.015625,0.050781
21657867000,0.999573,-0.017212,0.022644,0.010071,0.000000,0.023438,0.011719
21677852000,0.999573,-0.017273,0.022583,0.010071,0.000000,0.023438,0.011719
21701944000,0.999573,-0.017273,0.022583,0.010071,-0.007812,0.015625,0.011719
21724100000,0.999573,-0.017212,0.022583,0.010071,-0.007812,0.015625,-0.027344
21737934000,0.999573,-0.017273,0.022583,0.010071,-0.007812,0.015625,0.011719
21758163000,0.999573,-0.017212,0.022583,0.010071,-0.007812,0.015625,0.011719
21778954000,0.999573,-0.017212,0.022583,0.010071,-0.007812,0.015625,0.011719
21804797000,0.999573,-0.017212,0.022583,0.010071,-0.007812,0.015625,0.011719
21824216000,0.999573,-0.017273,0.022583,0.010071,-0.042969,-0.023438,0.011719
21837773000,0.999573,-0.017212,0.022583,0.010071,-0.035156,-0.023438,0.003906
21857920000,0.999573,-0.017212,0.022583,0.010010,0.000000,0.015625,0.003906
21887263000,0.999573,-0.017273,0.022583,0.010010,0.000000,-0.023438,0.003906
21903327000,0.999573,-0.017273,0.022583,0.010010,0.000000,-0.023438,0.003906
21917229000,0.999573,-0.017273,0.022583,0.010010,0.000000,0.015625,0.003906
21937296000,0.999573,-0.017273,0.022583,0.010010,0.000000,0.015625,0.003906
21967614000,0.999573,-0.017334,0.022583,0.010010,0.000000,0.015625,0.003906
21983890000,0.999573,-0.017273,0.022583,0.010010,0.000000,-0.023438,-0.035156
21997033000,0.999573,-0.017273,0.022583,0.010010,0.000000,-0.023438,0.003906
22016963000,0.999573,-0.017273,0.022583,0.010071,0.000000,0.015625,0.003906
22038685000,0.999573,-0.017273,0.022583,0.010071,0.000000,-0.023438,-0.035156
22066693000,0.999573,-0.017273,0.022644,0.010071,0.007812,-0.023438,0.011719
22076966000,0.999573,-0.017273,0.022644,0.010071,0.007812,0.015625,0.011719
22097031000,0.999573,-0.017273,0.022644,0.010071,0.007812,0.015625,-0.027344
22117472000,0.999573,-0.017212,0.022644,0.010071,0.007812,0.015625,-0.027344
22146839000,0.999573,-0.017151,0.022644,0.010071,0.007812,0.015625,0.011719
22156965000,0.999573,-0.017151,0.022644,0.010132,0.007812,0.015625,0.011719
22177041000,0.999573,-0.017151,0.022644,0.010132,0.007812,0.007812,-0.027344
22197177000,0.999573,-0.017151,0.022644,0.010132,0.007812,-0.031250,0.011719
22227091000,0.999573,-0.017151,0.022583,0.010071,-0.007812,-0.031250,0.011719
22236621000,0.999573,-0.017151,0.022583,0.010071,-0.007812,-0.031250,0.050781
22256380000,0.999573,-0.017151,0.022583,0.010071,-0.007812,0.007812,0.050781
22277769000,0.999573,-0.017090,0.022583,0.010071,-0.007812,-0.031250,0.011719
22300922000,0.999573,-0.017090,0.022583,0.010071,-0.007812,-0.031250,-0.027344
22325154000,0.999573,-0.017090,0.022583,0.010071,0.007812,-0.023438,0.011719
22336425000,0.999573,-0.017090,0.022583,0.010071,0.007812,0.015625,0.011719
22366094000,0.999573,-0.017090,0.022583,0.010071,0.046875,0.015625,0.011719
22376087000,0.999573,-0.017090,0.022583,0.010071,0.007812,0.015625,-0.027344
22396017000,0.999573,-0.017090,0.022583,0.010071,0.007812,-0.023438,-0.027344
22426140000,0.999573,-0.017090,0.022583,0.010071,0.007812,0.015625,0.011719
22435888000,0.999573,-0.017090,0.022583,0.010071,0.007812,-0.023438,0.050781
22465812000,0.999573,-0.017090,0.022583,0.010071,0.007812,0.015625,0.011719
22475812000,0.999573,-0.017090,0.022583,0.010071,0.007812,0.015625,-0.027344
22496177000,0.999573,-0.017090,0.022583,0.010071,0.007812,-0.023438,0.011719
22525812000,0.999573,-0.017090,0.022583,0.010071,0.007812,0.015625,0.011719
22535923000,0.999573,-0.017090,0.022583,0.010071,0.007812,0.015625,0.011719
22565694000,0.999573,-0.017090,0.022583,0.010071,0.007812,-0.023438,0.011719
22575540000,0.999573,-0.017090,0.022583,0.010071,0.007812,0.015625,0.011719
22595541000,0.999573,-0.017090,0.022583,0.010071,0.007812,0.015625,0.011719
22616814000,0.999573,-0.017090,0.022583,0.010071,0.007812,0.015625,0.011719
22645185000,0.999573,-0.017090,0.022583,0.010071,0.007812,-0.023438,0.011719
22655564000,0.999573,-0.017090,0.022583,0.010071,0.007812,-0.023438,0.011719
22676012000,0.999573,-0.017090,0.022583,0.010071,0.007812,-0.023438,-0.027344
22695182000,0.999573,-0.017090,0.022583,0.010071,0.007812,0.015625,0.011719
22716471000,0.999573,-0.017090,0.022583,0.010071,0.007812,0.015625,-0.027344
22735055000,0.999573,-0.017090,0.022583,0.010071,0.007812,-0.023438,-0.027344
22755660000,0.999573,-0.017090,0.022583,0.010071,0.007812,-0.023438,0.011719
22775479000,0.999573,-0.017090,0.022583,0.010071,0.007812,0.015625,-0.027344
22804472000,0.999573,-0.017090,0.022583,0.010071,0.007812,-0.023438,-0.027344
22814885000,0.999573,-0.017090,0.022583,0.010071,0.007812,-0.023438,0.019531
22835806000,0.999573,-0.017090,0.022583,0.010071,0.007812,-0.023438,0.019531
22855334000,0.999573,-0.017090,0.022583,0.010071,0.007812,-0.015625,0.019531
22876216000,0.999573,-0.017090,0.022583,0.010071,0.007812,-0.015625,-0.019531
22900711000,0.999573,-0.017090,0.022583,0.010071,0.007812,0.023438,0.019531
22914880000,0.999573,-0.017090,0.022583,0.010071,0.007812,0.023438,0.019531
22935443000,0.999573,-0.017090,0.022583,0.010071,0.007812,0.023438,0.019531
22954625000,0.999573,-0.017090,0.022583,0.010071,0.046875,-0.015625,0.011719
22984059000,0.999573,-0.017090,0.022583,0.010071,0.007812,0.023438,0.011719
23000537000,0.999573,-0.017090,0.022583,0.010071,0.007812,0.023438,0.011719
23014792000,0.999573,-0.017090,0.022583,0.010071,0.007812,-0.015625,0.011719
23045941000,0.999573,-0.017090,0.022583,0.010071,0.007812,-0.015625,0.011719
23064215000,0.999573,-0.017090,0.022583,0.010071,0.007812,-0.015625,0.050781
23081007000,0.999573,-0.017090,0.022583,0.010071,0.007812,0.023438,0.011719
23094601000,0.999573,-0.017090,0.022583,0.010071,0.007812,-0.015625,0.011719
23123512000,0.999573,-0.017090,0.022583,0.010071,0.007812,0.023438,0.050781
23137937000,0.999573,-0.017090,0.022583,0.010071,0.007812,0.023438,0.003906
23154695000,0.999573,-0.017090,0.022583,0.010071,0.007812,-0.015625,0.003906
23183959000,0.999573,-0.017090,0.022583,0.010071,0.046875,0.023438,-0.035156
23193570000,0.999573,-0.017090,0.022583,0.010071,0.007812,-0.015625,-0.035156
23214692000,0.999573,-0.017090,0.022583,0.010071,0.007812,0.023438,0.003906
23253305000,0.999573,-0.017090,0.022583,0.010071,0.007812,-0.023438,-0.027344
23263111000,0.999573,-0.017090,0.022583,0.010071,0.007812,0.015625,-0.027344
23274980000,0.999573,-0.017090,0.022583,0.010071,0.007812,-0.023438,0.011719
23303013000,0.999573,-0.017090,0.022583,0.010071,0.007812,0.015625,-0.027344
23313301000,0.999573,-0.017090,0.022583,0.010071,0.007812,-0.023438,0.011719
23344026000,0.999573,-0.017090,0.022583,0.010071,0.007812,0.015625,0.011719
23353556000,0.999573,-0.017090,0.022583,0.010071,0.007812,-0.023438,0.011719
23374572000,0.999573,-0.017090,0.022583,0.010071,0.007812,0.015625,0.011719
23395390000,0.999573,-0.017090,0.022583,0.010071,0.007812,0.015625,0.011719
23421081000,0.999573,-0.017090,0.022583,0.010071,0.000000,0.015625,-0.027344
23434117000,0.999573,-0.017090,0.022583,0.010071,0.000000,-0.023438,0.011719
23454710000,0.999573,-0.017090,0.022583,0.010071,0.000000,-0.023438,0.011719
23474629000,0.999573,-0.017090,0.022583,0.010071,0.000000,-0.023438,0.011719
23503263000,0.999573,-0.017090,0.022583,0.010071,0.000000,-0.015625,0.011719
23513322000,0.999573,-0.017090,0.022583,0.010071,0.000000,-0.015625,0.011719
23534689000,0.999573,-0.017090,0.022583,0.010071,0.007812,-0.015625,0.011719
23562521000,0.999573,-0.017090,0.022583,0.010071,0.007812,-0.015625,0.011719
23573411000,0.999573,-0.017090,0.022583,0.010071,0.007812,-0.015625,0.011719
23602410000,0.999573,-0.017090,0.022583,0.010071,0.007812,0.023438,0.011719
23622276000,0.999573,-0.017090,0.022583,0.010071,0.007812,0.023438,0.011719
23642698000,0.999573,-0.017090,0.022583,0.010071,0.007812,0.023438,-0.027344
23653614000,0.999573,-0.017090,0.022583,0.010071,0.046875,-0.015625,-0.027344
23682179000,0.999573,-0.017090,0.022583,0.010071,0.007812,-0.015625,0.011719
23702120000,0.999573,-0.017090,0.022583,0.010071,0.007812,0.023438,0.011719
23722775000,0.999573,-0.017090,0.022583,0.010071,0.007812,-0.015625,0.011719
23733285000,0.999573,-0.017090,0.022583,0.010071,0.007812,-0.015625,0.011719
23762220000,0.999573,-0.017090,0.022583,0.010071,0.007812,0.023438,0.011719
23781642000,0.999573,-0.017090,0.022583,0.010071,0.007812,0.023438,0.011719
23808750000,0.999573,-0.017090,0.022583,0.010071,0.007812,-0.015625,0.011719
23822004000,0.999573,-0.017090,0.022583,0.010071,0.007812,0.023438,0.011719
23842391000,0.999573,-0.017090,0.022583,0.010071,0.007812,-0.015625,0.011719
23861807000,0.999573,-0.017090,0.022583,0.010071,0.007812,-0.015625,0.011719
23885526000,0.999573,-0.017090,0.022583,0.010071,0.007812,-0.015625,0.011719
23901266000,0.999573,-0.017090,0.022583,0.010071,0.007812,0.023438,0.011719
23914207000,0.999573,-0.017090,0.022583,0.010071,0.007812,-0.015625,-0.027344
23941639000,0.999573,-0.017090,0.022583,0.010071,0.007812,-0.015625,0.011719
23966760000,0.999573,-0.017090,0.022583,0.010071,0.007812,0.015625,0.050781
23981045000,0.999573,-0.017090,0.022583,0.010071,0.007812,0.015625,0.011719
24001665000,0.999573,-0.017090,0.022583,0.010071,0.007812,-0.023438,0.011719
24021160000,0.999573,-0.017090,0.022583,0.010071,0.046875,-0.015625,0.011719
24047559000,0.999573,-0.017090,0.022583,0.010071,0.007812,0.023438,0.011719
24061511000,0.999573,-0.017090,0.022583,0.010071,0.007812,-0.015625,0.003906
24081284000,0.999573,-0.017090,0.022583,0.010071,0.000000,0.023438,-0.035156
24101139000,0.999573,-0.017090,0.022583,0.010071,0.000000,-0.015625,-0.027344
24123534000,0.999573,-0.017090,0.022583,0.010071,0.000000,-0.015625,-0.027344
24141197000,0.999573,-0.017090,0.022583,0.010071,0.000000,0.023438,0.011719
24162112000,0.999573,-0.017090,0.022583,0.010071,0.000000,-0.015625,0.011719
24180843000,0.999573,-0.017090,0.022583,0.010071,0.000000,0.023438,0.011719
24201563000,0.999573,-0.017090,0.022583,0.010071,0.039062,-0.015625,0.011719
24226927000,0.999573,-0.017090,0.022583,0.010071,0.000000,-0.015625,0.011719
24240740000,0.999573,-0.017090,0.022583,0.010071,0.000000,-0.015625,0.011719
24262459000,0.999573,-0.017090,0.022583,0.010071,0.000000,-0.015625,0.050781
24282039000,0.999573,-0.017090,0.022583,0.010071,0.000000,-0.015625,0.011719
24307450000,0.999573,-0.017090,0.022583,0.010071,0.000000,0.023438,0.011719
24320497000,0.999573,-0.017090,0.022583,0.010071,0.007812,0.023438,0.011719
24340144000,0.999573,-0.017090,0.022583,0.010071,0.007812,-0.015625,0.011719
24365942000,0.999573,-0.017090,0.022583,0.010071,0.007812,-0.015625,0.011719
24380412000,0.999573,-0.017090,0.022583,0.010071,0.007812,-0.015625,0.011719
24400198000,0.999573,-0.017090,0.022583,0.010071,0.007812,-0.015625,0.011719
24425636000,0.999573,-0.017090,0.022583,0.010071,0.007812,-0.015625,-0.027344
24440701000,0.999573,-0.017090,0.022583,0.010071,0.007812,0.023438,0.011719
24460735000,0.999573,-0.017090,0.022583,0.010071,0.007812,0.023438,0.011719
24479931000,0.999573,-0.017090,0.022583,0.010071,0.007812,0.023438,0.011719
24500238000,0.999573,-0.017090,0.022583,0.010071,0.007812,-0.015625,0.011719
24525713000,0.999573,-0.017090,0.022583,0.010071,0.046875,-0.015625,0.011719
24539987000,0.999573,-0.017090,0.022583,0.010071,0.007812,-0.015625,0.050781
24559719000,0.999573,-0.017090,0.022583,0.010071,0.007812,-0.015625,0.011719
24580489000,0.999573,-0.017090,0.022583,0.010071,0.007812,-0.015625,0.003906
24606726000,0.999573,-0.017090,0.022583,0.010071,0.007812,-0.015625,0.003906
24619499000,0.999573,-0.017090,0.022583,0.010071,0.007812,-0.015625,0.003906
24639368000,0.999573,-0.017090,0.022583,0.010071,0.007812,0.023438,0.003906
24669902000,0.999573,-0.017090,0.022583,0.010071,0.000000,0.023438,-0.035156
24679781000,0.999573,-0.017090,0.022583,0.010071,0.000000,-0.015625,0.003906
24699344000,0.999573,-0.017090,0.022583,0.010071,0.000000,0.023438,0.003906
24729189000,0.999573,-0.017090,0.022583,0.010071,0.000000,0.023438,0.042969
24746630000,0.999573,-0.017090,0.022583,0.010071,0.000000,-0.015625,0.042969
24759665000,0.999573,-0.017090,0.022583,0.010071,0.007812,-0.015625,0.003906
24789319000,0.999573,-0.017090,0.022583,0.010071,0.007812,-0.015625,0.003906
24798899000,0.999573,-0.017090,0.022583,0.010071,0.007812,0.023438,0.003906
24818997000,0.999573,-0.017090,0.022583,0.010071,0.007812,-0.015625,0.003906
24849445000,0.999573,-0.017090,0.022583,0.010071,0.007812,0.023438,0.003906
24858750000,0.999573,-0.017090,0.022583,0.010071,0.007812,-0.015625,0.003906
24878270000,0.999573,-0.017090,0.022583,0.010071,0.007812,-0.015625,0.003906
24898816000,0.999573,-0.017090,0.022583,0.010071,0.007812,-0.015625,0.003906
24929699000,0.999573,-0.017090,0.022583,0.010071,0.007812,-0.015625,0.003906
24944330000,0.999573,-0.017090,0.022583,0.010071,0.007812,-0.015625,0.003906
24958414000,0.999573,-0.017090,0.022583,0.010071,-0.027344,0.023438,0.003906
24980825000,0.999573,-0.017090,0.022583,0.010071,0.000000,-0.023438,0.003906
25008936000,0.999573,-0.017090,0.022583,0.010071,0.007812,-0.015625,0.003906
25025466000,0.999573,-0.017090,0.022583,0.010071,0.046875,-0.015625,0.003906
25038656000,0.999573,-0.017090,0.022583,0.010071,0.007812,0.023438,0.003906
25058282000,0.999573,-0.017090,0.022583,0.010071,0.007812,0.023438,0.003906
25087964000,0.999573,-0.017090,0.022583,0.010071,0.007812,-0.015625,0.011719
25103043000,0.999573,-0.017090,0.022583,0.010071,0.007812,-0.015625,0.011719
25118049000,0.999573,-0.017090,0.022583,0.010071,0.007812,-0.015625,0.011719
25138815000,0.999573,-0.017090,0.022583,0.010071,0.007812,0.023438,0.011719
25158521000,0.999573,-0.017090,0.022583,0.010071,0.007812,0.023438,0.011719
25177856000,0.999573,-0.017090,0.022583,0.010071,0.007812,-0.023438,0.011719
25198075000,0.999573,-0.017090,0.022583,0.010071,0.046875,-0.023438,0.011719
25217743000,0.999573,-0.017090,0.022583,0.010071,0.007812,-0.015625,0.011719
25239139000,0.999573,-0.017090,0.022583,0.010071,0.007812,-0.015625,0.011719
25264299000,0.999573,-0.017090,0.022583,0.010071,0.007812,-0.015625,0.011719
25277630000,0.999573,-0.017090,0.022583,0.010071,0.007812,0.023438,0.011719
25298493000,0.999573,-0.017090,0.022583,0.010071,0.046875,-0.015625,0.011719
25321793000,0.999573,-0.017090,0.022583,0.010071,0.007812,0.023438,0.011719
25343881000,0.999573,-0.017090,0.022583,0.010071,0.007812,0.023438,0.011719
25357894000,0.999573,-0.017090,0.022583,0.010071,0.007812,-0.015625,0.011719
25377562000,0.999573,-0.017090,0.022583,0.010071,0.007812,0.023438,0.011719
25407421000,0.999573,-0.017090,0.022583,0.010071,0.007812,-0.023438,0.050781
25424091000,0.999573,-0.017090,0.022583,0.010071,0.007812,-0.023438,0.050781
25444472000,0.999573,-0.017090,0.022583,0.010071,0.007812,-0.015625,0.011719
25457860000,0.999573,-0.017090,0.022583,0.010071,0.007812,0.023438,0.011719
25477024000,0.999573,-0.017090,0.022583,0.010071,0.046875,0.023438,0.011719
25498782000,0.999573,-0.017090,0.022583,0.010071,0.046875,0.023438,0.011719
25524197000,0.999573,-0.017090,0.022583,0.010071,0.000000,-0.015625,0.011719
25536868000,0.999573,-0.017090,0.022583,0.010071,0.000000,0.023438,0.011719
25557252000,0.999573,-0.017090,0.022583,0.010071,0.000000,0.023438,0.011719
25587309000,0.999573,-0.017090,0.022583,0.010071,-0.035156,-0.015625,0.011719
25597102000,0.999573,-0.017090,0.022583,0.010071,0.000000,-0.015625,0.003906
25616901000,0.999573,-0.017090,0.022583,0.010071,0.039062,-0.015625,0.042969
25636784000,0.999573,-0.017090,0.022583,0.010071,0.000000,0.023438,0.003906
25666511000,0.999573,-0.017090,0.022583,0.010071,0.000000,-0.015625,0.003906
25676693000,0.999573,-0.017090,0.022583,0.010071,0.000000,-0.015625,0.042969
25710361000,0.999573,-0.017090,0.022583,0.010071,0.000000,0.023438,-0.035156
25716681000,0.999573,-0.017090,0.022583,0.010071,0.000000,-0.015625,0.003906
25746484000,0.999573,-0.017090,0.022583,0.010071,0.000000,0.023438,0.003906
25763505000,0.999573,-0.017090,0.022583,0.010071,0.000000,-0.015625,0.003906
25776092000,0.999573,-0.017151,0.022583,0.010132,0.921875,0.023438,-0.074219
25798379000,0.999573,-0.017151,0.022583,0.010315,1.171875,0.031250,0.078125
25827065000,0.999512,-0.016907,0.023010,0.011902,1.738281,-0.937500,-0.113281
25836479000,0.999512,-0.017395,0.022827,0.011963,0.437500,4.886719,0.386719
25856977000,0.999512,-0.016907,0.023071,0.011963,0.933594,1.140625,0.117188
25886390000,0.999512,-0.017029,0.023010,0.011963,0.773438,0.031250,-0.152344
25895719000,0.999512,-0.017090,0.022949,0.011902,0.316406,0.175781,-0.187500
25915967000,0.999512,-0.017090,0.023010,0.011902,0.421875,-0.015625,0.308594
25938875000,0.999512,-0.017151,0.023010,0.011841,-0.152344,0.097656,0.117188
25956003000,0.999512,-0.017273,0.022949,0.011780,0.101562,-0.085938,-0.304688
25976319000,0.999512,-0.017334,0.022888,0.011719,-0.054688,-0.085938,-0.187500
25996270000,0.999512,-0.017578,0.022827,0.011780,-0.023438,-0.046875,-0.226562
26016171000,0.999512,-0.016907,0.023071,0.011658,-0.175781,-0.191406,0.808594
26045561000,0.999512,-0.017090,0.023010,0.011536,-0.796875,0.039062,0.156250
26055906000,0.999512,-0.017151,0.022949,0.011414,-0.835938,0.222656,-0.265625
26076154000,0.999512,-0.017273,0.022827,0.010864,-0.718750,0.257812,-0.035156
26096242000,0.999573,-0.017212,0.022705,0.009583,-0.843750,0.304688,0.042969
26125642000,0.999573,-0.017334,0.022644,0.009583,-0.343750,0.648438,-0.304688
26145231000,0.999573,-0.017517,0.022583,0.009644,-0.421875,-0.007812,-0.457031
26155406000,0.999573,-0.017517,0.022583,0.009705,-0.535156,0.105469,-0.417969
26175537000,0.999573,-0.017517,0.022583,0.009766,-0.574219,-0.085938,-0.417969
26195546000,0.999573,-0.017639,0.022522,0.009705,-0.535156,0.066406,-0.152344
26225480000,0.999573,-0.017639,0.022522,0.009583,-0.308594,-0.046875,-0.035156
26246145000,0.999573,-0.017456,0.022583,0.009705,-0.269531,-0.125000,0.003906
26255439000,0.999573,-0.017395,0.022583,0.009705,-0.460938,0.105469,0.003906
26275731000,0.999573,-0.017395,0.022583,0.009766,-0.308594,0.066406,-0.035156
26295154000,0.999573,-0.017334,0.022583,0.009766,-0.500000,-0.007812,0.078125
26325271000,0.999573,-0.017395,0.022583,0.009766,-0.230469,-0.007812,0.003906
26341324000,0.999573,-0.017334,0.022583,0.009705,-0.113281,-0.007812,0.078125
26355340000,0.999573,-0.017334,0.022583,0.009766,0.039062,-0.007812,0.003906
26375517000,0.999573,-0.017334,0.022583,0.009766,0.039062,-0.007812,0.042969
26395615000,0.999573,-0.017395,0.022583,0.009766,0.000000,-0.007812,0.042969
26424924000,0.999573,-0.017456,0.022583,0.009766,-0.039062,0.031250,0.003906
26434968000,0.999573,-0.017456,0.022583,0.009766,-0.078125,-0.046875,0.042969
26455313000,0.999573,-0.017578,0.022522,0.009766,0.039062,-0.046875,-0.035156
26475360000,0.999573,-0.017639,0.022522,0.009705,-0.269531,0.031250,-0.035156
26504772000,0.999573,-0.017578,0.022522,0.009644,-0.460938,0.031250,-0.074219
26523442000,0.999573,-0.017578,0.022522,0.009644,-0.382812,-0.007812,0.003906
26534054000,0.999573,-0.017639,0.022522,0.009583,-0.152344,0.031250,-0.074219
26554596000,0.999573,-0.017639,0.022461,0.009644,-0.046875,-0.046875,0.042969
26585173000,0.999573,-0.017639,0.022461,0.009583,-0.078125,0.031250,-0.035156
26594175000,0.999573,-0.017639,0.022461,0.009583,-0.078125,-0.007812,-0.035156
26615061000,0.999573,-0.017578,0.022522,0.009583,-0.039062,-0.007812,0.003906
26635141000,0.999573,-0.017578,0.022522,0.009583,-0.105469,-0.007812,0.003906
26664025000,0.999573,-0.017639,0.022522,0.009583,-0.031250,-0.085938,0.164062
26674054000,0.999573,-0.017639,0.022522,0.009583,-0.070312,-0.007812,0.011719
26694814000,0.999573,-0.017700,0.022461,0.009583,-0.078125,-0.007812,0.011719
26724318000,0.999573,-0.017700,0.022461,0.009583,-0.078125,0.031250,0.011719
26739945000,0.999573,-0.017700,0.022461,0.009583,-0.078125,0.031250,-0.027344
26754815000,0.999573,-0.017700,0.022522,0.009583,-0.039062,-0.007812,0.050781
26774701000,0.999573,-0.017700,0.022522,0.009583,-0.078125,0.031250,0.011719
26804269000,0.999573,-0.017639,0.022583,0.009583,-0.062500,-0.007812,0.011719
26813759000,0.999573,-0.017639,0.022583,0.009583,-0.023438,-0.007812,0.011719
26834722000,0.999573,-0.017639,0.022583,0.009583,0.093750,-0.054688,0.011719
26863764000,0.999573,-0.017700,0.022522,0.009583,0.054688,-0.015625,-0.027344
26880507000,0.999573,-0.017700,0.022522,0.009583,0.085938,-0.015625,0.011719
26894608000,0.999573,-0.017639,0.022583,0.009583,0.046875,-0.054688,0.050781
26914480000,0.999573,-0.017700,0.022583,0.009583,0.046875,-0.015625,0.011719
26943623000,0.999573,-0.017700,0.022583,0.009583,0.039062,-0.015625,0.011719
26953553000,0.999573,-0.017639,0.022583,0.009583,0.039062,-0.015625,-0.027344
26974780000,0.999573,-0.017639,0.022583,0.009583,0.078125,-0.015625,0.011719
27003147000,0.999573,-0.017639,0.022583,0.009583,0.070312,-0.007812,0.011719
27013299000,0.999573,-0.017639,0.022583,0.009583,0.031250,-0.007812,0.011719
27034705000,0.999573,-0.017700,0.022583,0.009583,0.062500,-0.007812,0.011719
27054726000,0.999512,-0.017639,0.022644,0.009583,0.023438,-0.007812,0.011719
27082962000,0.999512,-0.017700,0.022644,0.009583,0.015625,-0.007812,0.011719
27093176000,0.999512,-0.017700,0.022644,0.009583,0.015625,-0.007812,0.011719
27114408000,0.999512,-0.017700,0.022644,0.009644,0.054688,-0.007812,0.011719
27143276000,0.999512,-0.017700,0.022644,0.009644,0.007812,0.031250,0.011719
27153306000,0.999512,-0.017700,0.022583,0.009583,0.007812,-0.007812,0.011719
27175001000,0.999512,-0.017700,0.022583,0.009583,0.007812,-0.007812,-0.027344
27194310000,0.999512,-0.017761,0.022583,0.009583,0.007812,-0.007812,0.050781
27223199000,0.999512,-0.017761,0.022583,0.009583,0.007812,-0.007812,0.003906
27242484000,0.999512,-0.017761,0.022583,0.009583,0.007812,-0.007812,0.003906
27253287000,0.999512,-0.017761,0.022583,0.009583,0.046875,-0.007812,0.003906
27288402000,0.999512,-0.017761,0.022583,0.009583,0.046875,-0.007812,0.003906
27302854000,0.999512,-0.017761,0.022583,0.009583,0.039062,-0.007812,0.042969
27322394000,0.999512,-0.017761,0.022583,0.009583,0.000000,0.000000,-0.035156
27342202000,0.999512,-0.017761,0.022583,0.009583,0.039062,0.000000,-0.035156
27363161000,0.999512,-0.017761,0.022644,0.009521,0.000000,0.000000,0.003906
27387180000,0.999512,-0.017761,0.022644,0.009521,0.000000,0.000000,0.003906
27402874000,0.999512,-0.017761,0.022644,0.009521,0.000000,0.000000,-0.035156
27422337000,0.999512,-0.017761,0.022644,0.009521,0.039062,0.000000,-0.035156
27443607000,0.999512,-0.017700,0.022644,0.009521,0.000000,0.000000,0.003906
27461799000,0.999512,-0.017700,0.022644,0.009521,0.039062,0.000000,-0.027344
27482904000,0.999512,-0.017700,0.022644,0.009521,-0.007812,0.000000,0.011719
27502024000,0.999512,-0.017700,0.022705,0.009521,-0.007812,0.000000,0.011719
27524204000,0.999512,-0.017700,0.022705,0.009521,-0.007812,0.000000,0.011719
27548214000,0.999512,-0.017700,0.022644,0.009460,-0.007812,0.000000,0.011719
27561946000,0.999512,-0.017700,0.022644,0.009521,-0.007812,0.000000,0.011719
27582225000,0.999512,-0.017761,0.022644,0.009521,0.031250,0.000000,0.011719
27602345000,0.999512,-0.017761,0.022644,0.009521,-0.007812,0.000000,0.011719
27629068000,0.999512,-0.017761,0.022644,0.009521,-0.007812,0.000000,0.011719
27642706000,0.999512,-0.017761,0.022644,0.009521,-0.007812,0.000000,0.011719
27661346000,0.999512,-0.017761,0.022644,0.009521,-0.007812,0.000000,0.011719
27681703000,0.999512,-0.017700,0.022644,0.009521,0.031250,0.000000,0.003906
27702127000,0.999512,-0.017700,0.022644,0.009521,0.031250,0.000000,0.003906
27721259000,0.999512,-0.017700,0.022644,0.009521,-0.007812,0.000000,0.003906
27744050000,0.999512,-0.017700,0.022644,0.009521,-0.007812,0.000000,0.003906
27763325000,0.999512,-0.017700,0.022644,0.009521,-0.007812,0.000000,0.003906
27788954000,0.999512,-0.017700,0.022644,0.009521,-0.007812,0.000000,0.003906
27801361000,0.999512,-0.017700,0.022644,0.009521,-0.007812,0.000000,0.003906
27821399000,0.999512,-0.017700,0.022644,0.009521,-0.007812,0.039062,-0.035156
27851483000,0.999512,-0.017700,0.022644,0.009521,0.031250,0.000000,0.042969
27867909000,0.999512,-0.017700,0.022644,0.009521,-0.007812,-0.039062,0.003906
27880725000,0.999512,-0.017700,0.022644,0.009521,-0.007812,0.000000,0.003906
27901210000,0.999512,-0.017700,0.022644,0.009521,-0.007812,0.000000,0.003906
27924672000,0.999512,-0.017700,0.022705,0.009583,-0.007812,0.000000,0.003906
27940993000,0.999512,-0.017700,0.022705,0.009583,-0.007812,0.000000,-0.035156
27961187000,0.999512,-0.017700,0.022705,0.009583,-0.007812,0.000000,-0.035156
27981591000,0.999512,-0.017700,0.022705,0.009583,-0.007812,0.000000,0.003906
28007399000,0.999512,-0.017700,0.022705,0.009583,-0.007812,0.000000,-0.035156
28020844000,0.999512,-0.017761,0.022705,0.009521,-0.007812,0.000000,0.011719
28040884000,0.999512,-0.017700,0.022766,0.009521,-0.007812,0.000000,0.011719
28061370000,0.999512,-0.017700,0.022766,0.009521,-0.007812,0.000000,0.011719
28086693000,0.999512,-0.017700,0.022766,0.009521,-0.007812,0.000000,0.011719
28100887000,0.999512,-0.017700,0.022766,0.009521,0.031250,0.000000,0.011719
28120442000,0.999512,-0.017700,0.022766,0.009521,0.031250,0.000000,-0.027344
28140249000,0.999512,-0.017700,0.022766,0.009521,-0.007812,0.000000,0.011719
28170252000,0.999512,-0.017700,0.022766,0.009460,-0.007812,0.000000,-0.027344
28179723000,0.999512,-0.017761,0.022766,0.009460,0.031250,0.000000,0.011719
28200478000,0.999512,-0.017761,0.022766,0.009460,-0.007812,0.000000,0.011719
28220186000,0.999512,-0.017761,0.022766,0.009460,-0.007812,0.000000,0.011719
28245920000,0.999512,-0.017761,0.022766,0.009460,-0.007812,0.000000,0.011719
28259750000,0.999512,-0.017761,0.022766,0.009460,0.031250,0.000000,-0.027344
28279731000,0.999512,-0.017761,0.022766,0.009460,0.031250,0.000000,-0.027344
28300131000,0.999512,-0.017700,0.022766,0.009460,-0.007812,0.000000,-0.027344
28319495000,0.999512,-0.017700,0.022766,0.009460,-0.007812,0.000000,0.011719
28339685000,0.999512,-0.017700,0.022766,0.009460,-0.007812,0.000000,0.011719
28359707000,0.999512,-0.017700,0.022766,0.009460,-0.007812,0.000000,0.011719
28389566000,0.999512,-0.017639,0.022766,0.009460,-0.007812,0.000000,0.011719
28405780000,0.999512,-0.017639,0.022766,0.009460,-0.007812,0.000000,0.011719
28419526000,0.999512,-0.017700,0.022766,0.009460,-0.007812,0.000000,-0.027344
28439450000,0.999512,-0.017700,0.022766,0.009460,-0.007812,0.000000,-0.027344
28468713000,0.999512,-0.017700,0.022766,0.009399,0.031250,0.000000,0.011719
28486850000,0.999512,-0.017700,0.022766,0.009399,-0.007812,0.000000,0.011719
28499347000,0.999512,-0.017700,0.022827,0.009399,0.031250,0.000000,-0.027344
28519246000,0.999512,-0.017700,0.022827,0.009399,-0.007812,0.000000,0.011719
28548843000,0.999512,-0.017700,0.022827,0.009338,-0.007812,0.000000,-0.027344
28559387000,0.999512,-0.017700,0.022827,0.009338,0.031250,0.000000,0.011719
28578593000,0.999512,-0.017639,0.022827,0.009338,0.031250,0.000000,0.011719
28599426000,0.999512,-0.017639,0.022827,0.009338,-0.007812,0.000000,0.011719
28618433000,0.999512,-0.017639,0.022827,0.009338,0.031250,0.039062,0.011719
28638870000,0.999512,-0.017639,0.022827,0.009338,-0.007812,0.000000,0.011719
28668654000,0.999512,-0.017639,0.022827,0.009338,-0.007812,0.000000,0.011719
28685670000,0.999512,-0.017639,0.022827,0.009338,-0.007812,0.000000,0.011719
28698210000,0.999512,-0.017639,0.022827,0.009338,-0.007812,0.000000,0.003906
28720734000,0.999512,-0.017639,0.022827,0.009338,0.031250,0.000000,0.003906
28739020000,0.999512,-0.017639,0.022827,0.009338,-0.007812,0.000000,-0.035156
28768160000,0.999512,-0.017639,0.022827,0.009338,-0.007812,0.000000,0.003906
28777935000,0.999512,-0.017639,0.022827,0.009338,-0.007812,0.000000,0.003906
28798234000,0.999512,-0.017639,0.022827,0.009338,0.031250,0.000000,0.003906
28828392000,0.999512,-0.017639,0.022827,0.009338,-0.007812,0.000000,0.003906
28845280000,0.999512,-0.017639,0.022827,0.009338,-0.007812,0.000000,-0.035156
28858454000,0.999512,-0.017639,0.022827,0.009338,-0.007812,0.000000,-0.035156
28877849000,0.999512,-0.017639,0.022827,0.009338,0.031250,0.000000,-0.035156
28900942000,0.999512,-0.017639,0.022827,0.009338,-0.007812,-0.039062,0.003906
28917546000,0.999512,-0.017639,0.022827,0.009338,-0.007812,0.000000,0.011719
28937704000,0.999512,-0.017639,0.022827,0.009338,-0.007812,0.000000,0.011719
28957722000,0.999512,-0.017639,0.022827,0.009338,0.031250,0.000000,-0.027344
28987590000,0.999512,-0.017639,0.022827,0.009338,-0.007812,-0.039062,0.011719
28997406000,0.999512,-0.017639,0.022827,0.009338,-0.007812,0.000000,0.050781
29018310000,0.999512,-0.017639,0.022827,0.009338,-0.007812,0.000000,0.003906
29037362000,0.999512,-0.017639,0.022827,0.009338,-0.007812,0.000000,0.003906
29068074000,0.999512,-0.017639,0.022827,0.009338,-0.007812,0.000000,0.003906
29076653000,0.999512,-0.017639,0.022827,0.009338,0.031250,0.000000,0.003906
29098129000,0.999512,-0.017639,0.022827,0.009338,-0.007812,0.007812,0.003906
29117171000,0.999512,-0.017639,0.022827,0.009338,-0.007812,0.007812,0.042969
29147057000,0.999512,-0.017639,0.022827,0.009338,-0.007812,0.000000,0.042969
29157496000,0.999512,-0.017639,0.022827,0.009338,-0.007812,0.000000,0.003906
29180161000,0.999512,-0.017639,0.022827,0.009338,-0.007812,0.000000,0.003906
29197306000,0.999512,-0.017639,0.022827,0.009338,-0.007812,0.000000,0.003906
29226539000,0.999512,-0.017639,0.022827,0.009338,0.031250,0.000000,0.003906
29245616000,0.999512,-0.017639,0.022827,0.009338,-0.007812,0.000000,0.042969
29256733000,0.999512,-0.017639,0.022827,0.009338,-0.007812,0.000000,0.042969
29286877000,0.999512,-0.017639,0.022827,0.009338,-0.007812,0.000000,-0.035156
29297012000,0.999512,-0.017639,0.022827,0.009338,0.031250,0.000000,0.003906
29317187000,0.999512,-0.017639,0.022827,0.009338,-0.015625,0.000000,0.003906
29336720000,0.999512,-0.017639,0.022827,0.009338,0.023438,0.000000,0.003906
29366315000,0.999512,-0.017639,0.022827,0.009338,-0.015625,0.039062,0.003906
29376274000,0.999512,-0.017639,0.022827,0.009338,0.023438,0.000000,-0.035156
29396694000,0.999512,-0.017639,0.022827,0.009338,-0.015625,0.000000,0.003906
29426570000,0.999512,-0.017639,0.022827,0.009338,-0.015625,0.000000,0.003906
29436590000,0.999512,-0.017639,0.022827,0.009338,-0.015625,0.000000,-0.035156
29456172000,0.999512,-0.017639,0.022827,0.009338,-0.007812,0.000000,0.003906
29477675000,0.999512,-0.017639,0.022827,0.009338,-0.007812,0.000000,0.003906
29500580000,0.999512,-0.017639,0.022827,0.009338,-0.007812,0.000000,-0.035156
29516151000,0.999512,-0.017639,0.022827,0.009338,-0.007812,0.000000,0.003906
29536179000,0.999512,-0.017639,0.022827,0.009338,0.031250,0.000000,-0.035156
29556412000,0.999512,-0.017639,0.022827,0.009338,0.031250,0.000000,0.011719
29588905000,0.999512,-0.017639,0.022827,0.009338,-0.007812,0.000000,0.011719
29596354000,0.999512,-0.017639,0.022827,0.009338,-0.007812,0.000000,-0.027344
29616740000,0.999512,-0.017639,0.022827,0.009338,-0.007812,0.000000,-0.027344
29636630000,0.999512,-0.017639,0.022827,0.009338,-0.007812,0.039062,-0.027344
29665497000,0.999512,-0.017639,0.022827,0.009338,0.031250,0.000000,0.011719
29675622000,0.999512,-0.017639,0.022827,0.009338,0.031250,0.000000,-0.066406
29696219000,0.999512,-0.017639,0.022827,0.009338,0.031250,-0.039062,0.050781
29716325000,0.999512,-0.017639,0.022827,0.009338,-0.042969,0.000000,0.050781
29745445000,0.999512,-0.017639,0.022827,0.009338,-0.007812,0.000000,0.011719
29755738000,0.999512,-0.017639,0.022827,0.009338,-0.007812,-0.039062,0.085938
29775617000,0.999512,-0.017639,0.022888,0.009338,-0.007812,0.000000,0.011719
29805563000,0.999512,-0.017639,0.022888,0.009338,0.031250,-0.039062,0.050781
29815294000,0.999512,-0.017639,0.022888,0.009399,-0.007812,0.000000,0.011719
29835587000,0.999512,-0.017578,0.022888,0.009338,0.031250,0.000000,0.011719
29855048000,0.999512,-0.017517,0.022888,0.009338,-0.007812,0.039062,-0.027344
29875942000,0.999512,-0.017578,0.022888,0.009338,-0.007812,0.000000,0.050781
29904961000,0.999512,-0.017578,0.022888,0.009399,-0.007812,0.039062,-0.027344
29917996000,0.999512,-0.017517,0.022888,0.009399,-0.007812,0.000000,-0.027344
29941442000,0.999512,-0.017578,0.022888,0.009338,0.031250,0.039062,0.011719
29955473000,0.999512,-0.017456,0.022949,0.009399,-0.007812,-0.039062,0.050781
29975642000,0.999512,-0.017517,0.022888,0.009338,0.031250,0.039062,-0.027344
29998474000,0.999512,-0.017639,0.022888,0.009399,0.031250,0.039062,-0.066406
30024655000,0.999512,-0.017822,0.022766,0.009521,0.332031,0.000000,-0.066406
30035327000,0.999512,-0.017883,0.022705,0.009521,1.011719,-0.117188,0.164062
30064797000,0.999512,-0.017944,0.022766,0.009583,0.843750,-0.031250,0.078125
30079927000,0.999512,-0.017883,0.022705,0.009766,0.996094,0.121094,-0.187500
30095194000,0.999512,-0.017700,0.022827,0.011597,0.843750,-0.804688,0.234375
30115068000,0.999512,-0.017578,0.022888,0.011169,0.382812,1.792969,0.539062
30135227000,0.999512,-0.017517,0.022949,0.011414,0.492188,-0.500000,-0.113281
30163952000,0.999512,-0.017761,0.022827,0.011108,0.023438,-0.152344,0.078125
30174576000,0.999512,-0.017761,0.022888,0.010925,-0.089844,0.000000,0.117188
30195503000,0.999512,-0.017944,0.022644,0.010315,-0.175781,0.046875,0.042969
30215132000,0.999512,-0.017883,0.022583,0.009705,-0.367188,-0.117188,0.117188
30243898000,0.999512,-0.017883,0.022522,0.009521,-0.300781,0.039062,-0.304688
30254717000,0.999512,-0.018005,0.022461,0.009399,-0.261719,0.535156,-0.343750
30275110000,0.999573,-0.017883,0.022522,0.009460,-0.261719,-0.109375,0.156250
30299755000,0.999512,-0.017944,0.022461,0.009399,-0.300781,-0.039062,-0.035156
30314846000,0.999512,-0.018066,0.022400,0.009521,0.304688,0.007812,-0.265625
30335038000,0.999512,-0.018127,0.022400,0.009766,0.343750,0.007812,-0.265625
30363928000,0.999512,-0.018066,0.022461,0.010071,-0.382812,-0.031250,0.269531
30381013000,0.999512,-0.018127,0.022461,0.010193,0.070312,0.046875,-0.226562
30394576000,0.999512,-0.018005,0.022522,0.010254,-0.582031,0.160156,0.156250
30414774000,0.999512,-0.018127,0.022400,0.009949,-0.351562,0.351562,-0.187500
30436059000,0.999512,-0.018372,0.022156,0.009399,-0.507812,-0.031250,0.195312
30461394000,0.999573,-0.018311,0.022156,0.009399,-0.238281,0.199219,-0.113281
30480416000,0.999573,-0.018127,0.022156,0.009399,-0.359375,-0.109375,0.425781
30503397000,0.999573,-0.018127,0.022156,0.009338,-0.550781,0.046875,0.156250
30513871000,0.999573,-0.018433,0.022034,0.009338,-0.515625,0.046875,-0.152344
30534646000,0.999573,-0.018188,0.022095,0.009338,-0.285156,-0.109375,-0.152344
30555814000,0.999573,-0.018311,0.022034,0.009399,-0.015625,0.046875,-0.187500
30580334000,0.999573,-0.018372,0.021973,0.009644,0.214844,-0.070312,0.234375
30594426000,0.999512,-0.018311,0.021973,0.009888,-0.167969,-0.183594,0.117188
30614747000,0.999512,-0.018127,0.022034,0.010010,0.175781,0.121094,0.042969
30634659000,0.999512,-0.018127,0.022095,0.010193,0.062500,0.007812,-0.074219
30662955000,0.999512,-0.018188,0.022034,0.010132,0.519531,0.199219,-0.074219
30673290000,0.999573,-0.018127,0.021973,0.009888,0.406250,0.160156,0.042969
30694673000,0.999573,-0.018250,0.021851,0.009216,0.289062,0.046875,0.003906
30722874000,0.999573,-0.017761,0.021729,0.008545,-0.398438,-0.492188,-0.496094
30743064000,0.999573,-0.017395,0.021545,0.008362,-0.707031,0.222656,-0.917969
30753211000,0.999573,-0.017334,0.021606,0.008301,-0.742188,0.789062,-0.265625
30774657000,0.999573,-0.017334,0.021484,0.007996,-0.550781,-0.277344,0.539062
30802557000,0.999573,-0.017212,0.021545,0.007874,-0.742188,0.058594,-0.226562
30822714000,0.999573,-0.017273,0.021484,0.007874,-0.667969,-0.015625,0.003906
30847320000,0.999573,-0.017212,0.021545,0.007812,-0.015625,-0.054688,0.117188
30853511000,0.999573,-0.017212,0.021545,0.007812,-0.093750,0.023438,-0.074219
30882464000,0.999573,-0.017273,0.021484,0.007874,-0.093750,0.058594,-0.035156
30899045000,0.999573,-0.017273,0.021545,0.007874,-0.054688,-0.015625,0.042969
30926194000,0.999573,-0.017212,0.021545,0.007935,0.253906,-0.015625,0.003906
30933224000,0.999573,-0.017273,0.021545,0.007935,0.175781,-0.015625,0.003906
30961876000,0.999573,-0.017273,0.021484,0.007874,-0.121094,-0.007812,0.042969
30979825000,0.999573,-0.017212,0.021545,0.007874,-0.085938,-0.015625,-0.035156
31008983000,0.999573,-0.017395,0.021545,0.007812,0.296875,-0.015625,0.003906
31028484000,0.999573,-0.018127,0.021301,0.007874,0.261719,-0.007812,0.195312
31042471000,0.999573,-0.018372,0.021240,0.007996,0.031250,-0.062500,0.269531
31061943000,0.999573,-0.018250,0.021301,0.007935,-0.199219,0.015625,-0.035156
31081870000,0.999573,-0.018188,0.021362,0.007874,-0.390625,0.046875,-0.074219
31105570000,0.999573,-0.018127,0.021362,0.007874,0.070312,0.007812,0.003906
31130899000,0.999573,-0.018127,0.021362,0.007935,0.183594,0.082031,0.042969
31137803000,0.999573,-0.018372,0.021179,0.007996,0.261719,0.046875,-0.035156
31160567000,0.999573,-0.018433,0.021179,0.008057,-0.121094,-0.062500,-0.035156
31174753000,0.999573,-0.018372,0.021240,0.008118,-0.773438,-0.109375,-0.035156
31195145000,0.999573,-0.018188,0.021301,0.007812,-0.964844,0.082031,-0.074219
31215269000,0.999573,-0.018311,0.021179,0.007812,-0.039062,-0.144531,0.156250
31240142000,0.999573,-0.018127,0.021240,0.007812,-0.078125,0.007812,-0.035156
31254995000,0.999573,-0.018188,0.021240,0.007812,-0.078125,0.082031,-0.035156
31275183000,0.999573,-0.018433,0.021118,0.007812,-0.039062,0.007812,0.003906
31295851000,0.999573,-0.018433,0.021118,0.007812,-0.039062,-0.023438,0.003906
31316803000,0.999573,-0.018372,0.021118,0.007812,-0.113281,0.046875,-0.035156
31342010000,0.999573,-0.018372,0.021118,0.007812,-0.078125,0.046875,-0.035156
31361046000,0.999573,-0.018494,0.021118,0.007812,-0.078125,0.015625,0.003906
31380928000,0.999573,-0.018555,0.021118,0.007812,-0.031250,-0.023438,0.078125
31401045000,0.999573,-0.018494,0.021118,0.007812,-0.070312,0.015625,0.003906
31426698000,0.999573,-0.018555,0.021118,0.007812,-0.070312,0.089844,-0.152344
31440560000,0.999573,-0.018555,0.021118,0.007751,-0.070312,0.054688,-0.035156
31461052000,0.999573,-0.018555,0.021118,0.007751,-0.078125,0.015625,0.003906
31482170000,0.999573,-0.018555,0.021118,0.007751,-0.078125,0.015625,0.003906
31500580000,0.999573,-0.018555,0.021118,0.007751,-0.078125,-0.023438,0.042969
31520780000,0.999573,-0.018555,0.021118,0.007751,-0.078125,0.015625,0.042969
31540742000,0.999573,-0.018555,0.021057,0.007751,-0.031250,0.015625,0.003906
31560397000,0.999573,-0.018555,0.021118,0.007751,0.023438,0.007812,0.003906
31580886000,0.999573,-0.018555,0.021118,0.007751,-0.015625,0.007812,0.003906
31600906000,0.999573,-0.018555,0.021118,0.007751,-0.015625,0.007812,-0.035156
31630315000,0.999573,-0.018555,0.021057,0.007751,0.023438,0.007812,0.003906
31640892000,0.999573,-0.018555,0.021118,0.007751,0.023438,0.007812,0.003906
31660894000,0.999573,-0.018555,0.021118,0.007751,-0.015625,0.007812,0.003906
31682094000,0.999573,-0.018494,0.021118,0.007812,-0.015625,0.007812,-0.035156
31705245000,0.999573,-0.018555,0.021057,0.007812,0.023438,0.007812,0.042969
31720920000,0.999573,-0.018494,0.021118,0.007812,0.023438,-0.031250,0.003906
31739553000,0.999573,-0.018494,0.021057,0.007812,-0.015625,0.007812,-0.035156
31762814000,0.999573,-0.018494,0.021057,0.007812,0.023438,0.007812,0.003906
31786533000,0.999573,-0.018555,0.021057,0.007812,-0.015625,0.007812,-0.035156
31800057000,0.999573,-0.018555,0.020996,0.007812,0.023438,0.007812,0.042969
31819994000,0.999573,-0.018555,0.020996,0.007812,0.023438,0.007812,0.003906
31844014000,0.999573,-0.018555,0.020996,0.007812,-0.015625,0.007812,0.011719
31860347000,0.999573,-0.018555,0.020996,0.007812,0.023438,0.007812,0.011719
31879557000,0.999573,-0.018616,0.020996,0.007812,-0.015625,-0.031250,-0.027344
31900295000,0.999573,-0.018616,0.020996,0.007812,0.023438,0.007812,0.011719
31923335000,0.999573,-0.018616,0.021057,0.007812,-0.015625,0.007812,0.050781
31942631000,0.999573,-0.018616,0.021057,0.007874,-0.015625,0.007812,0.011719
31959627000,0.999573,-0.018616,0.021057,0.007812,0.023438,0.007812,0.011719
31979962000,0.999573,-0.018616,0.021057,0.007812,-0.015625,0.007812,0.011719
32002195000,0.999573,-0.018555,0.021057,0.007812,0.023438,0.007812,-0.027344
32019857000,0.999573,-0.018616,0.020996,0.007812,-0.015625,0.007812,0.011719
32039019000,0.999573,-0.018616,0.021057,0.007812,-0.015625,0.007812,0.011719
32059208000,0.999573,-0.018616,0.020996,0.007812,-0.015625,-0.031250,0.011719
32089518000,0.999573,-0.018555,0.021057,0.007812,-0.015625,0.007812,-0.027344
32098949000,0.999573,-0.018555,0.021057,0.007812,0.023438,0.046875,0.011719
32118875000,0.999573,-0.018555,0.020996,0.007812,-0.015625,-0.031250,0.050781
32140101000,0.999573,-0.018555,0.020996,0.007812,0.023438,0.007812,0.011719
32162869000,0.999573,-0.018555,0.020996,0.007812,-0.015625,0.007812,0.011719
32178771000,0.999573,-0.018555,0.020996,0.007812,-0.015625,0.007812,-0.027344
32198775000,0.999573,-0.018616,0.020996,0.007812,-0.015625,-0.031250,0.011719
32219155000,0.999573,-0.018555,0.021057,0.007812,-0.015625,-0.031250,0.050781
32239092000,0.999573,-0.018555,0.021057,0.007874,0.023438,0.007812,0.011719
32268567000,0.999573,-0.018555,0.021057,0.007812,-0.015625,0.007812,0.011719
32284877000,0.999573,-0.018555,0.021057,0.007812,-0.015625,0.007812,0.011719
32298192000,0.999573,-0.018555,0.021057,0.007812,-0.015625,0.007812,0.011719
32318949000,0.999573,-0.018555,0.021057,0.007812,-0.015625,-0.031250,0.011719
32338378000,0.999573,-0.018555,0.021057,0.007751,0.023438,0.007812,0.011719
32358986000,0.999573,-0.018555,0.021057,0.007751,-0.015625,0.007812,0.050781
32388722000,0.999573,-0.018555,0.020996,0.007751,-0.015625,0.007812,0.011719
32398183000,0.999573,-0.018555,0.020996,0.007751,-0.007812,0.007812,0.050781
32418711000,0.999573,-0.018555,0.020996,0.007751,-0.007812,0.007812,0.011719
32438126000,0.999573,-0.018555,0.020996,0.007751,0.031250,0.007812,0.011719
32468968000,0.999573,-0.018555,0.020996,0.007751,-0.015625,0.007812,-0.035156
32477926000,0.999573,-0.018616,0.020996,0.007751,-0.015625,0.007812,0.003906
32498067000,0.999573,-0.018616,0.020996,0.007751,0.023438,0.007812,0.003906
32517786000,0.999573,-0.018616,0.020996,0.007751,-0.015625,0.007812,0.003906
32548504000,0.999573,-0.018616,0.020935,0.007690,0.023438,0.007812,0.003906
32565024000,0.999573,-0.018616,0.020935,0.007690,0.023438,0.007812,0.003906
32577987000,0.999573,-0.018616,0.020935,0.007690,-0.015625,-0.031250,0.003906
32597927000,0.999573,-0.018616,0.020996,0.007690,0.023438,-0.031250,0.042969
32618204000,0.999573,-0.018555,0.020935,0.007690,0.023438,0.007812,0.003906
32648374000,0.999573,-0.018555,0.020935,0.007690,0.015625,0.007812,-0.035156
32665131000,0.999573,-0.018616,0.020935,0.007690,-0.023438,0.007812,0.003906
32677595000,0.999573,-0.018616,0.020996,0.007690,0.015625,0.007812,0.003906
32697394000,0.999573,-0.018616,0.020935,0.007690,-0.023438,0.007812,0.003906
32717174000,0.999573,-0.018555,0.020935,0.007690,-0.023438,0.007812,0.003906
32737328000,0.999573,-0.018555,0.020935,0.007629,-0.023438,0.007812,0.003906
32767706000,0.999573,-0.018555,0.020935,0.007629,-0.023438,0.007812,0.011719
32782400000,0.999573,-0.018555,0.020935,0.007629,-0.023438,-0.031250,0.011719
32797165000,0.999573,-0.018555,0.020935,0.007690,0.015625,0.007812,0.003906
32817596000,0.999573,-0.018616,0.020996,0.007690,-0.023438,0.007812,0.003906
32847706000,0.999573,-0.018616,0.020996,0.007690,0.023438,0.007812,0.042969
32866566000,0.999573,-0.018616,0.020935,0.007690,0.023438,0.007812,-0.027344
32874681000,0.999573,-0.018616,0.020935,0.007690,0.015625,-0.031250,0.011719
32895979000,0.999573,-0.018616,0.020935,0.007690,-0.023438,0.007812,0.011719
32914554000,0.999573,-0.018616,0.020935,0.007690,-0.023438,0.007812,-0.027344
32936132000,0.999573,-0.018616,0.020935,0.007690,-0.015625,0.007812,0.050781
32956193000,0.999573,-0.018555,0.020935,0.007690,0.023438,-0.031250,0.003906
32976428000,0.999573,-0.018555,0.020996,0.007690,-0.015625,0.007812,0.003906
32997199000,0.999573,-0.018555,0.020996,0.007690,-0.015625,0.007812,0.003906
33027499000,0.999573,-0.018555,0.020996,0.007690,0.023438,0.007812,-0.035156
33043651000,0.999573,-0.018555,0.020996,0.007690,-0.015625,0.007812,0.003906
33056012000,0.999573,-0.018555,0.020996,0.007690,-0.015625,0.007812,0.003906
33076852000,0.999573,-0.018555,0.020996,0.007690,-0.015625,-0.031250,0.003906
33095968000,0.999573,-0.018555,0.020996,0.007690,-0.015625,0.007812,0.042969
33117145000,0.999573,-0.018555,0.020996,0.007690,-0.015625,0.007812,0.003906
33142090000,0.999573,-0.018555,0.020996,0.007690,-0.015625,0.007812,0.003906
33155777000,0.999573,-0.018555,0.020996,0.007690,0.023438,0.007812,-0.035156
33176714000,0.999573,-0.018555,0.020996,0.007690,0.023438,0.007812,-0.035156
33197007000,0.999573,-0.018555,0.020996,0.007690,-0.015625,0.007812,0.003906
33216154000,0.999573,-0.018555,0.020996,0.007690,-0.015625,0.007812,0.003906
33235989000,0.999573,-0.018555,0.020996,0.007690,-0.015625,0.000000,0.003906
33256056000,0.999573,-0.018555,0.020996,0.007690,0.023438,0.000000,0.003906
33285986000,0.999573,-0.018555,0.020996,0.007690,0.023438,0.000000,0.003906
33295949000,0.999573,-0.018555,0.020996,0.007690,-0.015625,0.000000,0.003906
33315781000,0.999573,-0.018555,0.020996,0.007690,-0.015625,0.000000,-0.035156
33335926000,0.999573,-0.018555,0.020996,0.007690,0.023438,0.000000,0.011719
33365923000,0.999573,-0.018555,0.020996,0.007690,-0.015625,0.000000,0.011719
33384136000,0.999573,-0.018555,0.020996,0.007690,0.023438,0.000000,0.011719
33395608000,0.999573,-0.018555,0.020996,0.007690,-0.015625,0.000000,0.011719
33415143000,0.999573,-0.018555,0.020996,0.007690,0.023438,0.000000,0.011719
