timestamp_ns,qw,qx,qy,qz,ax,ay,az,t_sec,dist_83a8d,dist_48e72,dist_e05a1
2531321000,0.99939,-0.01001,0.033386,-0.000366,-0.003906,0.003906,-0.011719,0.063633,3.86,2.81,1.54
2541206000,0.99939,-0.01001,0.033386,-0.000366,-0.035156,0.003906,0.027344,0.073518,,,
2561408000,0.99939,-0.01001,0.033386,-0.000366,0.003906,0.003906,0.027344,0.09372,,,
2571418000,0.99939,-0.01001,0.033386,-0.000366,-0.035156,0.003906,0.027344,0.10373,,,
2581212000,0.99939,-0.01001,0.033386,-0.000366,-0.035156,0.003906,0.027344,0.113524,,,
2594009000,0.99939,-0.01001,0.033386,-0.000305,-0.035156,-0.035156,0.027344,0.126321,,,
2600715000,0.99939,-0.01001,0.033386,-0.000305,0.003906,0.003906,0.027344,0.133027,,,
2610684000,0.99939,-0.01001,0.033386,-0.000366,-0.035156,0.003906,-0.011719,0.142996,,,
2621465000,0.99939,-0.01001,0.033386,-0.000366,-0.035156,0.003906,-0.011719,0.153777,,,
2630676000,0.99939,-0.01001,0.033386,-0.000366,0.003906,0.003906,0.027344,0.162988,,,
2640871000,0.99939,-0.009949,0.033386,-0.000366,-0.027344,0.003906,-0.011719,0.173183,,,
2651664000,0.99939,-0.009949,0.033447,-0.000366,0.011719,0.003906,-0.011719,0.183976,,,
2661162000,0.99939,-0.009949,0.033447,-0.000366,-0.027344,0.042969,0.019531,0.193474,,,
2680998000,0.99939,-0.009949,0.033447,-0.000366,0.011719,0.003906,-0.019531,0.21331,3.9,2.89,1.53
2701214000,0.99939,-0.009949,0.033447,-0.000366,0.011719,0.003906,0.019531,0.233526,,,
2720568000,0.99939,-0.009949,0.033447,-0.000366,-0.019531,-0.003906,0.011719,0.25288,,,
2742374000,0.99939,-0.009949,0.033447,-0.000366,0.019531,-0.003906,0.011719,0.274686,,,
2767013000,0.99939,-0.009949,0.033447,-0.000366,-0.019531,-0.003906,0.011719,0.299325,,,
2780087000,0.99939,-0.009949,0.033447,-0.000366,-0.019531,-0.003906,-0.027344,0.312399,,,
2799938000,0.99939,-0.009949,0.033447,-0.000366,-0.019531,-0.003906,0.011719,0.33225,,,
2827240000,0.99939,-0.009949,0.033447,-0.000305,0.019531,-0.003906,0.011719,0.359552,,,
2840715000,0.99939,-0.009949,0.033447,-0.000305,0.019531,-0.003906,0.011719,0.373027,,,
2862394000,0.99939,-0.009949,0.033447,-0.000305,0.019531,-0.003906,0.011719,0.394706,,,
2882524000,0.99939,-0.01001,0.033447,-0.000305,0.019531,-0.003906,0.011719,0.414836,3.86,2.84,1.54
2899765000,0.99939,-0.01001,0.033386,-0.000305,-0.019531,-0.003906,0.011719,0.432077,,,
2920315000,0.99939,-0.01001,0.033386,-0.000305,-0.019531,-0.003906,-0.027344,0.452627,,,
2949724000,0.99939,-0.01001,0.033386,-0.000305,-0.019531,0.035156,0.011719,0.482036,,,
2967702000,0.99939,-0.01001,0.033386,-0.000305,-0.019531,-0.003906,0.011719,0.500014,,,
2979495000,0.99939,-0.009949,0.033447,-0.000305,0.019531,-0.003906,0.011719,0.511807,,,
3000945000,0.99939,-0.01001,0.033447,-0.000305,-0.019531,-0.003906,0.011719,0.533257,,,
3019923000,0.99939,-0.009949,0.033447,-0.000305,0.019531,-0.003906,0.011719,0.552235,,,
3039542000,0.99939,-0.009949,0.033447,-0.000305,0.019531,-0.003906,0.011719,0.571854,,,
3060051000,0.99939,-0.01001,0.033447,-0.000305,0.019531,0.035156,0.011719,0.592363,,,
3082344000,0.99939,-0.01001,0.033447,-0.000305,0.019531,-0.003906,0.011719,0.614656,3.88,2.85,1.53
3105534000,0.99939,-0.01001,0.033447,-0.000305,0.019531,-0.003906,0.011719,0.637846,,,
3119187000,0.99939,-0.01001,0.033447,-0.000305,0.019531,-0.003906,-0.027344,0.651499,,,
3149690000,0.99939,-0.01001,0.033447,-0.000305,-0.019531,-0.003906,0.011719,0.682002,,,
3167785000,0.99939,-0.009949,0.033447,-0.000305,0.019531,-0.003906,-0.027344,0.700097,,,
3179620000,0.99939,-0.009949,0.033447,-0.000305,-0.019531,-0.003906,0.011719,0.711932,,,
3199148000,0.99939,-0.01001,0.033447,-0.000305,-0.019531,-0.003906,0.011719,0.73146,,,
3229314000,0.99939,-0.009949,0.033447,-0.000366,0.019531,0.035156,0.011719,0.761626,,,
3238962000,0.99939,-0.009949,0.033447,-0.000366,-0.019531,-0.003906,0.050781,0.771274,,,
3258935000,0.99939,-0.009949,0.033447,-0.000305,-0.019531,-0.003906,0.011719,0.791247,,,
3278757000,0.99939,-0.009949,0.033447,-0.000305,0.019531,0.035156,0.011719,0.811069,3.85,2.81,1.53
3309010000,0.99939,-0.009888,0.033447,-0.000305,0.019531,-0.003906,0.011719,0.841322,,,
3324818000,0.99939,-0.009888,0.033508,-0.000305,-0.019531,-0.003906,0.011719,0.85713,,,
3338890000,0.99939,-0.009888,0.033508,-0.000366,-0.019531,0.035156,-0.027344,0.871202,,,
3359100000,0.99939,-0.009888,0.033508,-0.000366,-0.019531,-0.011719,-0.027344,0.891412,,,
3384547000,0.99939,-0.009888,0.033508,-0.000366,-0.019531,-0.003906,0.011719,0.916859,,,
3398281000,0.99939,-0.009888,0.033508,-0.000305,-0.019531,-0.003906,0.011719,0.930593,,,
3418252000,0.99939,-0.009888,0.033508,-0.000305,0.019531,-0.003906,-0.027344,0.950564,,,
3442202000,0.99939,-0.009888,0.033508,-0.000305,-0.019531,-0.003906,0.011719,0.974514,,,
3458034000,0.99939,-0.009949,0.033508,-0.000305,0.019531,-0.003906,0.050781,0.990346,,,
3478649000,0.99939,-0.009949,0.033508,-0.000305,0.019531,-0.003906,0.050781,1.010961,3.9,2.83,1.54
3508103000,0.99939,-0.009949,0.033508,-0.000305,-0.019531,0.035156,0.011719,1.040415,,,
3518187000,0.99939,-0.009949,0.033508,-0.000305,-0.019531,-0.003906,-0.027344,1.050499,,,
3538054000,0.99939,-0.009949,0.033508,-0.000305,0.019531,-0.003906,0.011719,1.070366,,,
3567772000,0.99939,-0.009949,0.033508,-0.000305,-0.019531,0.035156,0.011719,1.100084,,,
3578719000,0.99939,-0.009949,0.033508,-0.000305,-0.019531,-0.003906,0.011719,1.111031,,,
3598075000,0.99939,-0.009949,0.033508,-0.000305,0.019531,0.035156,0.011719,1.130387,,,
3622246000,0.99939,-0.009949,0.033508,-0.000305,0.019531,-0.003906,0.011719,1.154558,,,
3637967000,0.99939,-0.009949,0.033508,-0.000305,-0.019531,0.035156,0.011719,1.170279,,,
3657484000,0.99939,-0.009949,0.033508,-0.000305,0.019531,-0.003906,0.011719,1.189796,,,
3682062000,0.99939,-0.009949,0.033508,-0.000305,-0.019531,-0.003906,0.011719,1.214374,3.86,2.79,1.54
3700517000,0.99939,-0.009949,0.033508,-0.000305,-0.019531,-0.003906,0.011719,1.232829,,,
3722781000,0.99939,-0.009949,0.033508,-0.000305,-0.019531,0.035156,0.011719,1.255093,,,
3738037000,0.99939,-0.009949,0.033508,-0.000305,0.019531,-0.003906,0.011719,1.270349,,,
3757777000,0.99939,-0.009949,0.033508,-0.000305,-0.019531,-0.003906,0.011719,1.290089,,,
3787212000,0.99939,-0.009949,0.033508,-0.000305,-0.019531,0.035156,0.082031,1.319524,,,
3797167000,0.99939,-0.009949,0.033508,-0.000305,-0.019531,-0.003906,-0.035156,1.329479,,,
3818335000,0.99939,-0.009949,0.033508,-0.000305,-0.054688,-0.003906,0.003906,1.350647,,,
3843481000,0.99939,-0.009949,0.033508,-0.000305,-0.019531,-0.003906,0.003906,1.375793,,,
3857161000,0.99939,-0.009949,0.033508,-0.000305,0.019531,-0.003906,0.003906,1.389473,,,
3876964000,0.99939,-0.009949,0.033508,-0.000305,-0.019531,0.035156,0.003906,1.409276,3.92,2.88,1.55
3907326000,0.99939,-0.009949,0.033508,-0.000305,-0.019531,-0.003906,0.003906,1.439638,,,
3922696000,0.99939,-0.009949,0.033508,-0.000305,0.019531,-0.003906,0.003906,1.455008,,,
3936732000,0.99939,-0.009949,0.033508,-0.000305,-0.019531,-0.003906,0.003906,1.469044,,,
3957650000,0.99939,-0.009949,0.033508,-0.000305,0.019531,-0.003906,0.003906,1.489962,,,
3987808000,0.99939,-0.009949,0.033508,-0.000305,-0.019531,-0.003906,0.003906,1.52012,,,
3996401000,0.99939,-0.009949,0.033508,-0.000305,0.019531,0.035156,0.003906,1.528713,,,
4016734000,0.99939,-0.009949,0.033508,-0.000305,-0.019531,0.035156,0.003906,1.549046,,,
4046628000,0.99939,-0.009949,0.033508,-0.000305,-0.019531,-0.003906,-0.035156,1.57894,,,
4056297000,0.99939,-0.009949,0.033508,-0.000305,0.019531,-0.003906,0.003906,1.588609,,,
4086594000,0.99939,-0.009949,0.033508,-0.000305,0.019531,-0.003906,0.003906,1.618906,3.9,2.75,1.52
4096470000,0.99939,-0.009949,0.033508,-0.000305,0.019531,-0.003906,0.003906,1.628782,,,
4116569000,0.99939,-0.009949,0.033508,-0.000305,0.019531,-0.003906,0.003906,1.648881,,,
4146611000,0.99939,-0.009949,0.033508,-0.000305,-0.019531,-0.003906,0.042969,1.678923,,,
4161866000,0.99939,-0.009949,0.033508,-0.000305,-0.019531,-0.003906,0.003906,1.694178,,,
4176191000,0.99939,-0.009949,0.033508,-0.000305,0.019531,-0.003906,0.003906,1.708503,,,
4196437000,0.99939,-0.009949,0.033508,-0.000305,-0.019531,-0.003906,0.003906,1.728749,,,
4226205000,0.99939,-0.009949,0.033508,-0.000305,-0.019531,0.035156,0.003906,1.758517,,,
4235844000,0.99939,-0.009949,0.033508,-0.000305,-0.019531,0.035156,0.003906,1.768156,,,
4255947000,0.99939,-0.009949,0.033508,-0.000305,0.019531,-0.003906,0.003906,1.788259,,,
4286309000,0.99939,-0.009949,0.033508,-0.000305,-0.019531,-0.003906,0.003906,1.818621,3.88,2.79,1.54
4296416000,0.99939,-0.009949,0.033508,-0.000305,-0.019531,0.035156,0.003906,1.828728,,,
4315710000,0.99939,-0.009949,0.033508,-0.000305,-0.019531,-0.003906,0.003906,1.848022,,,
4346319000,0.99939,-0.009949,0.033508,-0.000305,0.019531,0.035156,-0.035156,1.878631,,,
4355541000,0.99939,-0.009949,0.033508,-0.000305,-0.019531,-0.003906,0.003906,1.887853,,,
4376268000,0.99939,-0.009949,0.033508,-0.000305,-0.019531,-0.003906,0.003906,1.90858,,,
4398210000,0.99939,-0.009949,0.033508,-0.000305,-0.019531,-0.003906,0.003906,1.930522,,,
4416120000,0.99939,-0.009949,0.033508,-0.000305,-0.019531,-0.003906,0.003906,1.948432,,,
4437720000,0.99939,-0.009949,0.033508,-0.000305,-0.019531,-0.003906,0.003906,1.970032,,,
4455620000,0.99939,-0.009949,0.033508,-0.000305,0.019531,-0.003906,0.003906,1.987932,,,
4476631000,0.99939,-0.009949,0.033508,-0.000305,0.019531,-0.003906,0.003906,2.008943,3.88,2.84,1.53
4495646000,0.99939,-0.009949,0.033508,-0.000305,0.019531,-0.003906,0.003906,2.027958,,,
4525523000,0.99939,-0.009949,0.033508,-0.000305,0.019531,-0.003906,0.003906,2.057835,,,
4542415000,0.99939,-0.009949,0.033508,-0.000305,0.019531,0.035156,0.003906,2.074727,,,
4555279000,0.99939,-0.009949,0.033508,-0.000305,-0.019531,-0.003906,0.003906,2.087591,,,
4575607000,0.99939,-0.009949,0.033508,-0.000305,-0.019531,0.035156,0.003906,2.107919,,,
4595220000,0.99939,-0.009949,0.033508,-0.000305,0.019531,-0.003906,0.042969,2.127532,,,
4615041000,0.99939,-0.009949,0.033508,-0.000305,0.019531,-0.003906,0.003906,2.147353,,,
4635678000,0.99939,-0.009949,0.033508,-0.000305,0.019531,0.035156,0.003906,2.16799,,,
4665104000,0.99939,-0.009949,0.033508,-0.000305,-0.019531,-0.003906,0.003906,2.197416,,,
4675189000,0.99939,-0.009949,0.033508,-0.000305,0.019531,-0.003906,0.003906,2.207501,3.87,2.86,1.54
4695459000,0.99939,-0.009949,0.033508,-0.000305,-0.019531,0.027344,0.003906,2.227771,,,
4715959000,0.99939,-0.009949,0.033508,-0.000305,0.019531,0.027344,0.003906,2.248271,,,
4743600000,0.99939,-0.009949,0.033508,-0.000305,0.019531,-0.011719,0.003906,2.275912,,,
4754414000,0.99939,-0.009949,0.033508,-0.000305,-0.019531,0.027344,0.003906,2.286726,,,
4780125000,0.99939,-0.009949,0.033508,-0.000305,0.019531,-0.011719,0.003906,2.312437,,,
4800432000,0.99939,-0.009949,0.033508,-0.000305,-0.019531,-0.011719,0.003906,2.332744,,,
4814743000,0.99939,-0.009949,0.033508,-0.000305,0.019531,-0.011719,0.003906,2.347055,,,
4844395000,0.99939,-0.009949,0.033508,-0.000305,-0.019531,0.027344,0.003906,2.376707,,,
4864909000,0.99939,-0.009949,0.033508,-0.000305,-0.019531,-0.011719,0.003906,2.397221,,,
4881649000,0.99939,-0.009949,0.033508,-0.000305,0.019531,-0.011719,0.003906,2.413961,3.89,2.95,1.51
4894880000,0.99939,-0.009949,0.033508,-0.000305,0.019531,-0.011719,0.003906,2.427192,,,
4915096000,0.99939,-0.009949,0.033508,-0.000305,0.019531,0.027344,0.042969,2.447408,,,
4944334000,0.99939,-0.009949,0.033508,-0.000366,-0.027344,-0.011719,0.003906,2.476646,,,
4953688000,0.99939,-0.009949,0.033508,-0.000305,0.011719,0.027344,0.003906,2.486,,,
4975051000,0.99939,-0.009949,0.033508,-0.000305,-0.027344,-0.011719,0.003906,2.507363,,,
4995016000,0.99939,-0.01001,0.033508,-0.000305,-0.027344,-0.011719,0.003906,2.527328,,,
5024221000,0.99939,-0.009949,0.033508,-0.000366,0.011719,0.027344,0.003906,2.556533,,,
5033945000,0.99939,-0.009888,0.033508,-0.000366,0.011719,-0.011719,0.003906,2.566257,,,
5064045000,0.99939,-0.009888,0.033508,-0.000366,0.011719,-0.011719,0.003906,2.596357,,,
5074333000,0.99939,-0.009888,0.033508,-0.000366,-0.019531,0.027344,0.003906,2.606645,3.91,2.87,1.52
5105616000,0.99939,-0.009888,0.033508,-0.000366,-0.019531,-0.011719,0.003906,2.637928,,,
5127872000,0.99939,-0.009888,0.033508,-0.000366,-0.019531,-0.011719,0.003906,2.660184,,,
5133809000,0.99939,-0.009888,0.033508,-0.000366,-0.019531,0.027344,0.003906,2.666121,,,
5164578000,0.99939,-0.009949,0.033508,-0.000366,0.019531,0.027344,0.003906,2.69689,,,
5183602000,0.99939,-0.009949,0.033508,-0.000366,-0.019531,0.027344,0.003906,2.715914,,,
5193302000,0.99939,-0.009949,0.033508,-0.000366,0.019531,0.027344,0.003906,2.725614,,,
5216923000,0.99939,-0.009949,0.033508,-0.000366,-0.019531,0.027344,0.003906,2.749235,,,
5234790000,0.99939,-0.009949,0.033447,-0.000366,0.019531,-0.011719,0.003906,2.767102,,,
5263614000,0.99939,-0.01001,0.033447,-0.000366,0.019531,-0.011719,0.003906,2.795926,,,
5273140000,0.99939,-0.01001,0.033447,-0.000366,-0.019531,0.027344,0.042969,2.805452,,,
5294664000,0.99939,-0.01001,0.033447,-0.000366,-0.019531,-0.011719,0.003906,2.826976,3.89,2.9,1.53
5314652000,0.99939,-0.01001,0.033447,-0.000366,0.019531,0.027344,0.003906,2.846964,,,
5343097000,0.99939,-0.010071,0.033386,-0.000305,0.019531,-0.011719,0.003906,2.875409,,,
5353275000,0.99939,-0.010071,0.033386,-0.000305,0.019531,0.027344,0.003906,2.885587,,,
5374681000,0.99939,-0.010071,0.033386,-0.000366,-0.019531,-0.011719,-0.035156,2.906993,,,
5395418000,0.99939,-0.010071,0.033386,-0.000366,0.019531,-0.011719,-0.035156,2.92773,,,
5423295000,0.99939,-0.01001,0.033386,-0.000366,0.019531,-0.011719,0.003906,2.955607,,,
5433387000,0.99939,-0.01001,0.033386,-0.000366,0.019531,0.027344,0.042969,2.965699,,,
5465661000,0.99939,-0.01001,0.033386,-0.000366,0.019531,-0.011719,0.003906,2.997973,,,
5473235000,0.99939,-0.01001,0.033386,-0.000366,0.019531,-0.011719,0.042969,3.005547,,,
5503349000,0.99939,-0.01001,0.033386,-0.000366,-0.027344,-0.011719,0.003906,3.035661,3.9,2.91,1.57
5513411000,0.99939,-0.01001,0.033386,-0.000366,0.011719,0.027344,0.003906,3.045723,,,
5545436000,0.99939,-0.01001,0.033447,-0.000366,0.011719,0.027344,0.003906,3.077748,,,
5562771000,0.99939,-0.009949,0.033447,-0.000366,0.011719,-0.011719,0.003906,3.095083,,,
5579508000,0.99939,-0.009949,0.033447,-0.000366,-0.027344,0.027344,0.042969,3.11182,,,
5594142000,0.99939,-0.01001,0.033447,-0.000366,-0.027344,0.027344,0.042969,3.126454,,,
5622641000,0.99939,-0.01001,0.033386,-0.000366,0.011719,-0.011719,0.003906,3.154953,,,
5642524000,0.99939,-0.01001,0.033386,-0.000366,-0.027344,0.027344,0.003906,3.174836,,,
5653142000,0.99939,-0.010071,0.033386,-0.000366,-0.027344,-0.011719,0.042969,3.185454,,,
5682426000,0.99939,-0.010071,0.033386,-0.000366,-0.027344,0.027344,-0.003906,3.214738,3.91,2.95,1.54
5702084000,0.99939,-0.01001,0.033386,-0.000366,0.011719,-0.011719,-0.003906,3.234396,,,
5723198000,0.99939,-0.01001,0.033386,-0.000366,0.011719,0.027344,-0.003906,3.25551,,,
5741936000,0.99939,-0.01001,0.033386,-0.000366,0.011719,-0.011719,-0.003906,3.274248,,,
5762223000,0.99939,-0.01001,0.033386,-0.000427,0.011719,-0.011719,-0.003906,3.294535,,,
5781840000,0.99939,-0.01001,0.033447,-0.000427,-0.027344,0.027344,0.035156,3.314152,,,
5802284000,0.99939,-0.01001,0.033447,-0.000427,0.011719,-0.011719,-0.003906,3.334596,,,
5825003000,0.99939,-0.01001,0.033447,-0.000366,-0.027344,0.027344,-0.003906,3.357315,,,
5848414000,0.99939,-0.01001,0.033447,-0.000366,0.011719,0.027344,-0.003906,3.380726,,,
5862057000,0.99939,-0.01001,0.033447,-0.000366,0.011719,-0.011719,-0.003906,3.394369,,,
5882363000,0.99939,-0.01001,0.033386,-0.000366,0.011719,0.027344,-0.003906,3.414675,3.93,2.94,1.54
5902184000,0.99939,-0.01001,0.033386,-0.000366,-0.027344,0.027344,-0.003906,3.434496,,,
5927361000,0.99939,-0.01001,0.033386,-0.000366,0.011719,0.027344,-0.042969,3.459673,,,
5941886000,0.99939,-0.01001,0.033386,-0.000366,0.011719,-0.011719,-0.003906,3.474198,,,
5961756000,0.99939,-0.010071,0.033386,-0.000366,-0.027344,0.027344,-0.003906,3.494068,,,
5981857000,0.99939,-0.010071,0.033386,-0.000366,0.011719,0.027344,-0.003906,3.514169,,,
6003261000,0.99939,-0.010071,0.033386,-0.000366,0.011719,-0.011719,-0.003906,3.535573,,,
6026183000,0.99939,-0.010071,0.033386,-0.000366,0.011719,-0.011719,0.003906,3.558495,,,
6041071000,0.99939,-0.010071,0.033386,-0.000366,-0.027344,-0.011719,0.003906,3.573383,,,
6061580000,0.99939,-0.010071,0.033386,-0.000366,-0.027344,0.019531,-0.035156,3.593892,,,
6081828000,0.99939,-0.010071,0.033386,-0.000366,0.011719,0.019531,0.003906,3.61414,3.89,2.92,1.53
6107249000,0.99939,-0.010071,0.033386,-0.000366,-0.027344,-0.019531,0.003906,3.639561,,,
6121354000,0.99939,-0.010071,0.033386,-0.000366,-0.027344,-0.019531,0.003906,3.653666,,,
6141351000,0.99939,-0.010071,0.033386,-0.000366,0.011719,-0.019531,0.003906,3.673663,,,
6161541000,0.99939,-0.010071,0.033447,-0.000366,-0.019531,-0.011719,0.003906,3.693853,,,
6185583000,0.99939,-0.010071,0.033386,-0.000427,-0.019531,0.027344,0.003906,3.717895,,,
6200675000,0.99939,-0.01001,0.033447,-0.000427,0.019531,0.027344,0.003906,3.732987,,,
6221589000,0.99939,-0.01001,0.033447,-0.000427,0.019531,0.027344,0.003906,3.753901,,,
6250839000,0.99939,-0.01001,0.033447,-0.000427,-0.019531,-0.011719,0.003906,3.783151,,,
6270471000,0.99939,-0.01001,0.033447,-0.000427,-0.019531,-0.011719,0.003906,3.802783,,,
6280384000,0.99939,-0.01001,0.033447,-0.000366,0.019531,-0.011719,0.003906,3.812696,3.91,2.94,1.56
6300412000,0.99939,-0.01001,0.033447,-0.000427,0.019531,-0.011719,0.003906,3.832724,,,
6321403000,0.99939,-0.01001,0.033386,-0.000427,0.019531,-0.011719,0.003906,3.853715,,,
6347536000,0.99939,-0.01001,0.033386,-0.000427,0.019531,-0.011719,0.003906,3.879848,,,
6360857000,0.99939,-0.01001,0.033386,-0.000427,-0.019531,-0.011719,0.003906,3.893169,,,
6380154000,0.99939,-0.01001,0.033386,-0.000427,0.019531,-0.011719,0.003906,3.912466,,,
6410157000,0.99939,-0.009949,0.033386,-0.000366,-0.027344,-0.003906,0.003906,3.942469,,,
6426487000,0.99939,-0.009949,0.033386,-0.000427,0.011719,0.035156,0.042969,3.958799,,,
6440695000,0.99939,-0.009949,0.033386,-0.000427,0.011719,-0.003906,0.042969,3.973007,,,
6459904000,0.99939,-0.009949,0.033386,-0.000427,0.011719,0.027344,-0.003906,3.992216,,,
6480335000,0.99939,-0.009949,0.033386,-0.000427,-0.027344,-0.011719,0.035156,4.012647,3.92,2.89,1.53
6501714000,0.99939,-0.009949,0.033386,-0.000427,0.011719,-0.011719,-0.003906,4.034026,,,
6526193000,0.99939,-0.009949,0.033386,-0.000427,-0.027344,-0.011719,-0.003906,4.058505,,,
6540037000,0.99939,-0.009949,0.033386,-0.000427,0.011719,0.027344,-0.003906,4.072349,,,
6559967000,0.99939,-0.01001,0.033386,-0.000488,-0.027344,-0.011719,0.035156,4.092279,,,
6581038000,0.99939,-0.01001,0.033386,-0.000488,-0.027344,-0.011719,0.035156,4.11335,,,
6607801000,0.99939,-0.009949,0.033386,-0.000488,0.011719,-0.011719,-0.003906,4.140113,,,
6619546000,0.99939,-0.01001,0.033386,-0.000488,0.011719,-0.011719,-0.003906,4.151858,,,
6639887000,0.99939,-0.01001,0.033386,-0.000488,0.011719,0.027344,-0.003906,4.172199,,,
6661614000,0.99939,-0.009949,0.033386,-0.000488,-0.027344,0.027344,-0.003906,4.193926,,,
6683633000,0.99939,-0.009949,0.033386,-0.000488,-0.027344,-0.011719,-0.003906,4.215945,3.88,2.86,1.55
6700330000,0.99939,-0.009949,0.033386,-0.000488,0.011719,0.027344,-0.003906,4.232642,,,
6719174000,0.99939,-0.009949,0.033386,-0.000488,-0.027344,-0.011719,0.035156,4.251486,,,
6740000000,0.99939,-0.009949,0.033386,-0.000427,0.011719,-0.011719,-0.003906,4.272312,,,
6769443000,0.99939,-0.009949,0.033386,-0.000427,-0.027344,-0.011719,-0.003906,4.301755,,,
6779551000,0.99939,-0.009949,0.033386,-0.000427,0.011719,-0.011719,-0.003906,4.311863,,,
6799488000,0.99939,-0.009949,0.033386,-0.000488,-0.027344,-0.011719,-0.003906,4.3318,,,
6819588000,0.99939,-0.009949,0.033386,-0.000488,0.011719,-0.011719,-0.003906,4.3519,,,
6849275000,0.99939,-0.009888,0.033386,-0.000488,0.011719,-0.011719,-0.003906,4.381587,,,
6859297000,0.99939,-0.009888,0.033386,-0.000488,0.011719,0.027344,-0.003906,4.391609,,,
6878675000,0.99939,-0.009888,0.033386,-0.000488,-0.027344,0.027344,-0.003906,4.410987,,,
6898826000,0.99939,-0.009888,0.033386,-0.000488,0.011719,-0.011719,-0.003906,4.431138,3.86,2.81,1.53
6928779000,0.99939,-0.009888,0.033386,-0.000488,-0.027344,0.027344,0.035156,4.461091,,,
6945686000,0.99939,-0.009888,0.033386,-0.000488,-0.027344,0.027344,-0.042969,4.477998,,,
6958004000,0.99939,-0.009888,0.033386,-0.000488,0.011719,0.027344,0.035156,4.490316,,,
6978475000,0.99939,-0.009888,0.033386,-0.000488,-0.027344,-0.011719,-0.003906,4.510787,,,
6998176000,0.99939,-0.009888,0.033386,-0.000488,0.011719,0.027344,-0.003906,4.530488,,,
7018861000,0.99939,-0.009888,0.033386,-0.000488,0.011719,0.027344,-0.003906,4.551173,,,
7040013000,0.99939,-0.009888,0.033386,-0.000488,-0.027344,-0.011719,-0.003906,4.572325,,,
7065435000,0.99939,-0.009888,0.033386,-0.000488,0.011719,0.027344,0.035156,4.597747,,,
7078665000,0.99939,-0.009888,0.033386,-0.000488,0.011719,0.027344,-0.003906,4.610977,,,
7097733000,0.99939,-0.009888,0.033386,-0.000488,0.011719,-0.011719,-0.003906,4.630045,3.89,2.83,1.55
7118859000,0.99939,-0.009888,0.033386,-0.000488,0.011719,-0.011719,-0.003906,4.651171,,,
7142540000,0.99939,-0.009888,0.033386,-0.000488,-0.027344,0.027344,-0.003906,4.674852,,,
7158016000,0.99939,-0.009888,0.033386,-0.000488,0.011719,0.027344,-0.003906,4.690328,,,
7177814000,0.99939,-0.009888,0.033386,-0.000488,0.011719,-0.011719,-0.003906,4.710126,,,
7197868000,0.99939,-0.009888,0.033386,-0.000488,-0.027344,-0.011719,-0.003906,4.73018,,,
7217644000,0.99939,-0.009888,0.033386,-0.000488,-0.027344,0.027344,-0.003906,4.749956,,,
7237968000,0.99939,-0.009888,0.033386,-0.000488,-0.027344,0.027344,-0.003906,4.77028,,,
7257948000,0.99939,-0.009888,0.033386,-0.000488,0.011719,-0.011719,-0.003906,4.79026,,,
7287919000,0.99939,-0.009888,0.033386,-0.000488,0.011719,0.027344,-0.003906,4.820231,3.89,2.78,1.55
7304018000,0.99939,-0.009888,0.033386,-0.000488,-0.027344,-0.011719,-0.003906,4.83633,,,
7317433000,0.99939,-0.009888,0.033386,-0.000488,0.011719,0.027344,-0.003906,4.849745,,,
7347409000,0.99939,-0.009888,0.033386,-0.000488,-0.027344,0.027344,-0.003906,4.879721,,,
7357498000,0.99939,-0.009888,0.033386,-0.000488,0.011719,-0.011719,-0.003906,4.88981,,,
7377974000,0.99939,-0.009888,0.033386,-0.000488,0.011719,-0.011719,-0.003906,4.910286,,,
7401667000,0.99939,-0.009888,0.033386,-0.000488,0.011719,-0.011719,-0.003906,4.933979,,,
7417943000,0.99939,-0.009888,0.033386,-0.000488,-0.027344,-0.011719,-0.003906,4.950255,,,
7437087000,0.99939,-0.009888,0.033386,-0.000488,-0.027344,-0.011719,0.035156,4.969399,,,
7457684000,0.99939,-0.009888,0.033386,-0.000488,-0.027344,0.027344,-0.003906,4.989996,,,
7487209000,0.99939,-0.009888,0.033386,-0.000488,-0.027344,-0.011719,-0.003906,5.019521,3.92,2.79,1.53
7497689000,0.99939,-0.009888,0.033386,-0.000488,-0.027344,0.027344,-0.003906,5.030001,,,
7517049000,0.99939,-0.009888,0.033386,-0.000488,0.011719,0.027344,-0.003906,5.049361,,,
7536973000,0.99939,-0.009888,0.033386,-0.000488,0.011719,0.027344,0.035156,5.069285,,,
7566616000,0.99939,-0.009888,0.033386,-0.000488,0.011719,-0.011719,-0.003906,5.098928,,,
7576557000,0.99939,-0.009888,0.033386,-0.000488,-0.019531,-0.011719,-0.003906,5.108869,,,
7596669000,0.99939,-0.009888,0.033386,-0.000488,0.019531,0.027344,-0.003906,5.128981,,,
7626885000,0.99939,-0.009888,0.033386,-0.000488,0.011719,0.027344,-0.003906,5.159197,,,
7642218000,0.99939,-0.009888,0.033386,-0.000488,-0.027344,-0.011719,-0.003906,5.17453,,,
7656454000,0.99939,-0.009888,0.033386,-0.000488,-0.027344,-0.011719,-0.003906,5.188766,,,
7677184000,0.99939,-0.009888,0.033386,-0.000488,0.011719,-0.011719,-0.003906,5.209496,,,
7696647000,0.99939,-0.009888,0.033386,-0.000488,-0.027344,0.027344,-0.003906,5.228959,3.92,2.84,1.51
7716567000,0.99939,-0.009888,0.033386,-0.000488,-0.027344,0.027344,-0.042969,5.248879,,,
7736155000,0.99939,-0.009888,0.033386,-0.000488,0.011719,0.027344,0.035156,5.268467,,,
7757371000,0.99939,-0.009888,0.033386,-0.000488,0.011719,0.027344,0.035156,5.289683,,,
7783592000,0.99939,-0.009888,0.033386,-0.000488,-0.027344,0.027344,-0.003906,5.315904,,,
7796427000,0.99939,-0.009888,0.033386,-0.000488,0.011719,-0.011719,-0.003906,5.328739,,,
7816159000,0.99939,-0.009888,0.033386,-0.000488,-0.027344,0.019531,-0.003906,5.348471,,,
7837196000,0.99939,-0.009888,0.033386,-0.000488,-0.027344,-0.019531,0.035156,5.369508,,,
7866063000,0.99939,-0.009888,0.033386,-0.000488,-0.027344,0.019531,-0.003906,5.398375,,,
7884030000,0.99939,-0.009888,0.033386,-0.000488,-0.027344,-0.019531,-0.003906,5.416342,3.87,2.86,1.54
7896046000,0.99939,-0.009888,0.033386,-0.000488,-0.019531,0.019531,-0.003906,5.428358,,,
7915599000,0.99939,-0.009888,0.033447,-0.000488,-0.019531,0.011719,-0.003906,5.447911,,,
7946061000,0.99939,-0.009827,0.033447,-0.000488,0.019531,-0.027344,-0.003906,5.478373,,,
7955952000,0.99939,-0.009827,0.033447,-0.000488,0.019531,-0.027344,0.035156,5.488264,,,
7976510000,0.99939,-0.009827,0.033447,-0.000488,0.019531,0.011719,-0.003906,5.508822,,,
8005424000,0.99939,-0.009827,0.033447,-0.000488,0.019531,-0.027344,0.035156,5.537736,,,
8025300000,0.99939,-0.009827,0.033447,-0.000549,0.019531,0.011719,-0.003906,5.557612,,,
8035683000,0.99939,-0.009827,0.033447,-0.000549,-0.027344,-0.027344,-0.003906,5.567995,,,
8056003000,0.99939,-0.009827,0.033447,-0.000488,-0.027344,-0.019531,0.035156,5.588315,,,
8075656000,0.99939,-0.009888,0.033447,-0.000488,-0.027344,-0.019531,0.035156,5.607968,,,
8096792000,0.99939,-0.009827,0.033447,-0.000488,0.011719,-0.019531,-0.003906,5.629104,3.92,2.78,1.52
8120888000,0.99939,-0.009888,0.033386,-0.000488,-0.027344,0.019531,-0.003906,5.6532,,,
8135985000,0.99939,-0.009888,0.033447,-0.000488,0.011719,-0.011719,-0.003906,5.668297,,,
8155923000,0.99939,-0.009827,0.033386,-0.000488,-0.027344,-0.019531,-0.003906,5.688235,,,
8181960000,0.99939,-0.009827,0.033386,-0.000488,-0.027344,-0.019531,0.035156,5.714272,,,
8195256000,0.99939,-0.009888,0.033386,-0.000488,0.011719,0.019531,-0.003906,5.727568,,,
8215421000,0.99939,-0.009888,0.033386,-0.000488,0.011719,-0.003906,0.027344,5.747733,,,
8236039000,0.99939,-0.009949,0.033386,-0.000488,-0.027344,-0.003906,-0.011719,5.768351,,,
8264639000,0.99939,-0.009949,0.033386,-0.000488,0.011719,-0.003906,0.027344,5.796951,,,
8275645000,0.99939,-0.009949,0.033386,-0.000488,0.011719,0.035156,-0.011719,5.807957,,,
8295636000,0.99939,-0.009949,0.033386,-0.000488,0.011719,-0.011719,-0.011719,5.827948,3.85,2.82,1.54
8315525000,0.99939,-0.009888,0.033386,-0.000427,0.011719,0.027344,0.027344,5.847837,,,
8341547000,0.99939,-0.009888,0.033386,-0.000488,-0.027344,-0.011719,-0.011719,5.873859,,,
8355568000,0.99939,-0.009949,0.033386,-0.000427,-0.027344,-0.011719,0.027344,5.88788,,,
8376036000,0.99939,-0.009949,0.033386,-0.000427,-0.027344,-0.011719,-0.050781,5.908348,,,
8395362000,0.99939,-0.009949,0.033325,-0.000488,-0.027344,-0.011719,-0.011719,5.927674,,,
8415307000,0.99939,-0.009949,0.033325,-0.000427,0.011719,0.027344,-0.011719,5.947619,,,
8444621000,0.99939,-0.009949,0.033325,-0.000427,-0.027344,-0.011719,-0.011719,5.976933,,,
8454703000,0.99939,-0.009949,0.033325,-0.000427,0.011719,-0.011719,0.027344,5.987015,,,
8475007000,0.99939,-0.009949,0.033325,-0.000427,0.011719,-0.011719,-0.011719,6.007319,,,
8496038000,0.99939,-0.009949,0.033386,-0.000427,0.011719,-0.011719,-0.011719,6.02835,3.9,2.82,1.54
8524258000,0.99939,-0.009888,0.033386,-0.000488,-0.027344,0.027344,-0.011719,6.05657,,,
8541124000,0.99939,-0.009888,0.033386,-0.000488,0.011719,-0.011719,-0.011719,6.073436,,,
8554783000,0.99939,-0.009888,0.033386,-0.000488,0.011719,0.027344,-0.003906,6.087095,,,
8575028000,0.99939,-0.009888,0.033386,-0.000488,-0.027344,-0.011719,0.035156,6.10734,,,
8604342000,0.99939,-0.009827,0.033386,-0.000488,-0.027344,0.019531,-0.003906,6.136654,,,
8620654000,0.99939,-0.009827,0.033447,-0.000488,-0.027344,-0.019531,-0.003906,6.152966,,,
8634635000,0.99939,-0.009827,0.033447,-0.000488,-0.027344,0.019531,-0.003906,6.166947,,,
8654994000,0.99939,-0.009827,0.033447,-0.000488,-0.027344,0.019531,-0.003906,6.187306,,,
8684451000,0.99939,-0.009827,0.033386,-0.000488,-0.027344,0.019531,-0.003906,6.216763,,,
8694214000,0.99939,-0.009766,0.033386,-0.000488,0.011719,-0.019531,-0.003906,6.226526,3.89,2.81,1.54
8723489000,0.99939,-0.009827,0.033386,-0.000488,0.011719,0.019531,-0.003906,6.255801,,,
8740474000,0.99939,-0.009766,0.033447,-0.000488,0.011719,-0.019531,0.035156,6.272786,,,
8754417000,0.99939,-0.009766,0.033447,-0.000488,-0.027344,-0.019531,0.035156,6.286729,,,
8783680000,0.99939,-0.009766,0.033386,-0.000488,0.011719,0.019531,0.035156,6.315992,,,
8793504000,0.99939,-0.009766,0.033386,-0.000488,-0.027344,0.019531,0.035156,6.325816,,,
8814702000,0.99939,-0.009766,0.033447,-0.000488,0.011719,0.019531,-0.003906,6.347014,,,
8844257000,0.99939,-0.009827,0.033447,-0.000488,0.011719,0.019531,0.035156,6.376569,,,
8853243000,0.99939,-0.009827,0.033447,-0.000488,0.011719,-0.019531,-0.003906,6.385555,,,
8875273000,0.99939,-0.009827,0.033447,-0.000488,-0.027344,0.019531,-0.003906,6.407585,,,
8894142000,0.99939,-0.009827,0.033447,-0.000488,-0.027344,-0.019531,0.035156,6.426454,3.87,2.82,1.54
8914655000,0.99939,-0.009827,0.033447,-0.000488,0.011719,0.019531,-0.003906,6.446967,,,
8943167000,0.99939,-0.009827,0.033447,-0.000488,0.011719,0.019531,-0.003906,6.475479,,,
8953237000,0.99939,-0.009827,0.033447,-0.000488,-0.027344,-0.019531,-0.003906,6.485549,,,
8974614000,0.99939,-0.009827,0.033447,-0.000488,-0.027344,-0.019531,0.035156,6.506926,,,
9004573000,0.99939,-0.009827,0.033447,-0.000488,0.011719,-0.019531,-0.003906,6.536885,,,
9013420000,0.99939,-0.009827,0.033447,-0.000488,0.011719,-0.019531,-0.003906,6.545732,,,
9035424000,0.99939,-0.009827,0.033447,-0.000488,-0.027344,-0.019531,-0.003906,6.567736,,,
9062627000,0.99939,-0.009827,0.033447,-0.000488,-0.027344,-0.011719,0.035156,6.594939,,,
9082154000,0.99939,-0.009827,0.033447,-0.000488,-0.027344,0.027344,0.035156,6.614466,,,
9093407000,0.99939,-0.009827,0.033447,-0.000488,0.011719,-0.011719,-0.003906,6.625719,3.9,2.85,1.53
9122199000,0.99939,-0.009827,0.033447,-0.000488,-0.027344,-0.011719,-0.003906,6.654511,,,
9133259000,0.99939,-0.009827,0.033447,-0.000488,-0.027344,0.027344,-0.003906,6.665571,,,
9162529000,0.99939,-0.009827,0.033447,-0.000488,0.011719,-0.011719,0.035156,6.694841,,,
9182206000,0.99939,-0.009827,0.033447,-0.000488,-0.027344,0.027344,-0.011719,6.714518,,,
9193270000,0.99939,-0.009827,0.033447,-0.000488,0.011719,0.027344,-0.011719,6.725582,,,
9222316000,0.99939,-0.009827,0.033447,-0.000488,0.011719,0.027344,-0.011719,6.754628,,,
9242508000,0.99939,-0.009827,0.033447,-0.000488,-0.027344,0.027344,0.027344,6.77482,,,
9262601000,0.99939,-0.009827,0.033447,-0.000488,-0.027344,-0.011719,-0.011719,6.794913,,,
9282152000,0.99939,-0.009827,0.033447,-0.000488,-0.027344,-0.011719,0.027344,6.814464,,,
9293486000,0.99939,-0.009827,0.033447,-0.000488,-0.027344,0.027344,-0.011719,6.825798,3.9,2.77,1.54
9322825000,0.99939,-0.009827,0.033447,-0.000488,-0.019531,-0.011719,-0.011719,6.855137,,,
9342398000,0.99939,-0.009827,0.033447,-0.000488,0.019531,-0.011719,-0.011719,6.87471,,,
9363941000,0.99939,-0.009827,0.033447,-0.000488,-0.019531,-0.011719,-0.011719,6.896253,,,
9373361000,0.99939,-0.009827,0.033447,-0.000488,0.019531,-0.011719,0.027344,6.905673,,,
9402857000,0.99939,-0.009827,0.033447,-0.000488,0.019531,-0.011719,-0.011719,6.935169,,,
9431759000,0.99939,-0.009827,0.033447,-0.000488,-0.019531,0.027344,-0.050781,6.964071,,,
9446763000,0.99939,-0.009827,0.033447,-0.000488,-0.019531,-0.011719,0.027344,6.979075,,,
9461077000,0.99939,-0.009827,0.033447,-0.000488,0.019531,-0.011719,0.035156,6.993389,,,
9486136000,0.99939,-0.009827,0.033447,-0.000488,-0.019531,0.027344,-0.003906,7.018448,,,
9501221000,0.99939,-0.009827,0.033447,-0.000488,0.019531,0.027344,-0.003906,7.033533,3.87,2.75,1.54
9526186000,0.99939,-0.009827,0.033447,-0.000488,-0.019531,-0.011719,-0.042969,7.058498,,,
9541540000,0.99939,-0.009827,0.033447,-0.000488,0.019531,0.027344,-0.003906,7.073852,,,
9561431000,0.99939,-0.009827,0.033447,-0.000488,0.019531,-0.011719,0.035156,7.093743,,,
9580962000,0.99939,-0.009827,0.033447,-0.000488,0.019531,-0.011719,0.035156,7.113274,,,
9601378000,0.99939,-0.009827,0.033447,-0.000488,-0.019531,0.027344,-0.003906,7.13369,,,
9626613000,0.99939,-0.009827,0.033447,-0.000488,-0.019531,-0.011719,-0.003906,7.158925,,,
9640669000,0.99939,-0.009827,0.033447,-0.000488,0.019531,-0.011719,-0.003906,7.172981,,,
9664466000,0.99939,-0.009827,0.033447,-0.000488,0.019531,-0.011719,0.035156,7.196778,,,
9683823000,0.99939,-0.009827,0.033447,-0.000488,0.011719,-0.011719,-0.003906,7.216135,,,
9700856000,0.99939,-0.009827,0.033447,-0.000488,0.011719,0.027344,0.035156,7.233168,3.9,2.76,1.53
9723506000,0.99939,-0.009827,0.033447,-0.000488,0.011719,-0.011719,-0.003906,7.255818,,,
9742387000,0.99939,-0.009827,0.033447,-0.000488,-0.027344,0.027344,-0.003906,7.274699,,,
9767525000,0.99939,-0.009827,0.033447,-0.000488,0.011719,0.027344,-0.003906,7.299837,,,
9780771000,0.99939,-0.009827,0.033447,-0.000488,0.011719,0.027344,-0.003906,7.313083,,,
9800268000,0.99939,-0.009827,0.033447,-0.000488,0.011719,0.027344,-0.003906,7.33258,,,
9820320000,0.99939,-0.009827,0.033447,-0.000488,0.011719,0.027344,0.035156,7.352632,,,
9846114000,0.99939,-0.009827,0.033447,-0.000488,0.011719,0.027344,0.035156,7.378426,,,
9860414000,0.99939,-0.009827,0.033447,-0.000488,-0.027344,0.019531,-0.003906,7.392726,,,
9880094000,0.99939,-0.009827,0.033447,-0.000488,-0.027344,-0.019531,-0.003906,7.412406,,,
9904455000,0.99939,-0.009827,0.033447,-0.000488,0.011719,-0.019531,0.035156,7.436767,3.92,2.75,1.53
9931423000,0.99939,-0.009827,0.033447,-0.000488,0.011719,-0.019531,-0.042969,7.463735,,,
9940028000,0.99939,-0.009827,0.033447,-0.000488,0.011719,0.019531,0.035156,7.47234,,,
9961185000,0.99939,-0.009827,0.033447,-0.000488,0.011719,-0.019531,-0.003906,7.493497,,,
9984931000,0.99939,-0.009827,0.033447,-0.000488,-0.027344,0.019531,-0.003906,7.517243,,,
10000440000,0.99939,-0.009827,0.033447,-0.000488,-0.027344,-0.019531,-0.003906,7.532752,,,
10019937000,0.99939,-0.009827,0.033447,-0.000488,-0.027344,0.019531,-0.003906,7.552249,,,
10040501000,0.99939,-0.009827,0.033447,-0.000488,0.011719,-0.019531,-0.003906,7.572813,,,
10062964000,0.99939,-0.009827,0.033447,-0.000488,-0.027344,-0.019531,0.035156,7.595276,,,
10079703000,0.99939,-0.009827,0.033447,-0.000488,0.011719,0.019531,-0.003906,7.612015,,,
10100176000,0.99939,-0.009827,0.033447,-0.000488,0.011719,-0.019531,-0.003906,7.632488,3.87,2.84,1.54
10132599000,0.99939,-0.009827,0.033447,-0.000488,0.011719,0.019531,-0.003906,7.664911,,,
10139622000,0.99939,-0.009827,0.033447,-0.000488,-0.027344,-0.019531,-0.003906,7.671934,,,
10159421000,0.99939,-0.009827,0.033447,-0.000488,0.011719,0.019531,-0.003906,7.691733,,,
10186150000,0.99939,-0.009827,0.033447,-0.000488,-0.027344,-0.019531,0.035156,7.718462,,,
10199794000,0.99939,-0.009827,0.033447,-0.000488,0.011719,0.019531,-0.003906,7.732106,,,
10219500000,0.99939,-0.009827,0.033447,-0.000488,0.011719,-0.019531,0.035156,7.751812,,,
10249127000,0.99939,-0.009827,0.033447,-0.000488,0.011719,0.019531,-0.003906,7.781439,,,
10259323000,0.99939,-0.009827,0.033447,-0.000488,0.011719,0.019531,-0.003906,7.791635,,,
10279020000,0.99939,-0.009827,0.033447,-0.000488,0.011719,0.019531,-0.003906,7.811332,,,
10299392000,0.99939,-0.009827,0.033447,-0.000488,0.011719,-0.019531,0.035156,7.831704,3.89,2.83,1.54
10329476000,0.99939,-0.009827,0.033447,-0.000488,-0.027344,0.019531,-0.003906,7.861788,,,
10346087000,0.99939,-0.009827,0.033447,-0.000488,0.011719,0.019531,-0.003906,7.878399,,,
10358792000,0.99939,-0.009827,0.033447,-0.000488,-0.027344,-0.019531,-0.003906,7.891104,,,
10378985000,0.99939,-0.009827,0.033447,-0.000488,0.011719,0.019531,-0.003906,7.911297,,,
10399988000,0.99939,-0.009827,0.033447,-0.000488,-0.027344,0.019531,-0.003906,7.9323,,,
10424524000,0.99939,-0.009827,0.033447,-0.000488,0.011719,0.019531,-0.003906,7.956836,,,
10439748000,0.99939,-0.009827,0.033447,-0.000488,0.011719,0.019531,-0.003906,7.97206,,,
10459226000,0.99939,-0.009827,0.033447,-0.000488,0.011719,-0.019531,0.035156,7.991538,,,
10489586000,0.99939,-0.009827,0.033447,-0.000488,-0.027344,0.019531,-0.003906,8.021898,3.9,2.9,1.57
10504459000,0.99939,-0.009827,0.033447,-0.000488,-0.027344,0.019531,0.035156,8.036771,,,
10518684000,0.99939,-0.009827,0.033447,-0.000488,0.011719,-0.019531,-0.003906,8.050996,,,
10543623000,0.99939,-0.009827,0.033447,-0.000488,-0.027344,-0.019531,-0.003906,8.075935,,,
10558174000,0.99939,-0.009827,0.033447,-0.000488,0.011719,-0.019531,0.035156,8.090486,,,
10584229000,0.99939,-0.009827,0.033447,-0.000488,0.011719,-0.019531,0.035156,8.116541,,,
10598049000,0.99939,-0.009827,0.033447,-0.000488,0.011719,0.019531,-0.003906,8.130361,,,
10618049000,0.99939,-0.009827,0.033447,-0.000488,-0.027344,-0.019531,-0.003906,8.150361,,,
10643097000,0.99939,-0.009827,0.033447,-0.000488,0.011719,0.019531,-0.003906,8.175409,,,
10664477000,0.99939,-0.009827,0.033447,-0.000488,0.011719,-0.019531,-0.003906,8.196789,,,
10678270000,0.99939,-0.009827,0.033447,-0.000488,-0.027344,0.019531,0.035156,8.210582,,,
10699105000,0.99939,-0.009827,0.033447,-0.000488,0.011719,0.019531,0.035156,8.231417,3.92,2.88,1.53
10718934000,0.99939,-0.009827,0.033447,-0.000488,-0.027344,-0.019531,0.035156,8.251246,,,
10747499000,0.99939,-0.009827,0.033447,-0.000488,0.011719,0.019531,-0.003906,8.279811,,,
10757980000,0.99939,-0.009827,0.033447,-0.000488,-0.027344,0.019531,0.035156,8.290292,,,
10787918000,0.99939,-0.009827,0.033447,-0.000488,0.011719,-0.019531,-0.003906,8.32023,,,
10798262000,0.99939,-0.009827,0.033447,-0.000488,0.011719,-0.019531,0.035156,8.330574,,,
10818165000,0.99939,-0.009827,0.033447,-0.000488,0.011719,0.019531,-0.003906,8.350477,,,
10843551000,0.99939,-0.009827,0.033447,-0.000488,0.011719,-0.019531,0.035156,8.375863,,,
10857632000,0.99939,-0.009827,0.033447,-0.000488,0.011719,0.019531,-0.003906,8.389944,,,
10877356000,0.99939,-0.009827,0.033447,-0.000488,-0.027344,-0.019531,-0.003906,8.409668,,,
10903963000,0.99939,-0.009827,0.033447,-0.000488,0.011719,-0.019531,-0.003906,8.436275,3.87,2.87,1.55
10917198000,0.99939,-0.009827,0.033447,-0.000488,0.011719,0.019531,-0.003906,8.44951,,,
10938144000,0.99939,-0.009827,0.033447,-0.000488,-0.027344,0.019531,-0.003906,8.470456,,,
10958989000,0.99939,-0.009827,0.033447,-0.000488,-0.027344,0.019531,-0.003906,8.491301,,,
10983176000,0.99939,-0.009827,0.033447,-0.000488,0.011719,0.019531,-0.003906,8.515488,,,
10997303000,0.99939,-0.009827,0.033447,-0.000488,0.011719,0.019531,-0.003906,8.529615,,,
11017406000,0.99939,-0.009827,0.033447,-0.000488,-0.027344,0.019531,0.035156,8.549718,,,
11037290000,0.99939,-0.009827,0.033447,-0.000488,-0.027344,-0.019531,-0.003906,8.569602,,,
11066916000,0.99939,-0.009827,0.033447,-0.000488,0.011719,0.019531,-0.003906,8.599228,,,
11077392000,0.99939,-0.009827,0.033447,-0.000488,0.011719,-0.019531,0.035156,8.609704,,,
11096814000,0.99939,-0.009827,0.033447,-0.000488,0.011719,0.019531,-0.003906,8.629126,3.92,2.85,1.53
11118309000,0.99939,-0.009827,0.033447,-0.000488,0.011719,-0.019531,0.035156,8.650621,,,
11142249000,0.99939,-0.009827,0.033447,-0.000488,-0.027344,0.019531,0.035156,8.674561,,,
11158078000,0.99939,-0.009827,0.033447,-0.000488,0.011719,-0.019531,-0.003906,8.69039,,,
11177817000,0.99939,-0.009827,0.033447,-0.000488,-0.027344,-0.019531,0.035156,8.710129,,,
11196475000,0.99939,-0.009827,0.033447,-0.000488,0.011719,0.019531,0.035156,8.728787,,,
11217634000,0.99939,-0.009827,0.033447,-0.000488,-0.027344,0.019531,0.035156,8.749946,,,
11238571000,0.99939,-0.009827,0.033447,-0.000488,0.011719,0.019531,0.035156,8.770883,,,
11265066000,0.99939,-0.009827,0.033447,-0.000488,-0.027344,0.019531,0.027344,8.797378,,,
11276367000,0.99939,-0.009827,0.033447,-0.000488,0.011719,-0.019531,-0.011719,8.808679,,,
11296136000,0.99939,-0.009827,0.033447,-0.000488,0.050781,-0.019531,-0.011719,8.828448,3.93,2.83,1.53
11316949000,0.99939,-0.009827,0.033447,-0.000488,0.011719,0.019531,-0.011719,8.849261,,,
11347250000,0.99939,-0.009827,0.033447,-0.000488,-0.027344,0.019531,-0.011719,8.879562,,,
11364748000,0.99939,-0.009827,0.033447,-0.000488,-0.027344,-0.019531,0.027344,8.89706,,,
11376056000,0.99939,-0.009827,0.033447,-0.000488,0.011719,0.019531,0.027344,8.908368,,,
11397035000,0.99939,-0.009827,0.033447,-0.000488,0.011719,-0.019531,-0.011719,8.929347,,,
11426796000,0.99939,-0.009827,0.033447,-0.000488,0.011719,-0.019531,-0.011719,8.959108,,,
11436014000,0.99939,-0.009827,0.033447,-0.000488,-0.027344,-0.019531,0.027344,8.968326,,,
11456157000,0.99939,-0.009827,0.033508,-0.000488,0.011719,0.132812,0.140625,8.988469,,,
11476793000,0.99939,-0.009827,0.033447,-0.000488,-0.027344,0.019531,0.027344,9.009105,,,
11502345000,0.99939,-0.009766,0.033508,-0.000488,-0.027344,0.019531,-0.011719,9.034657,3.92,2.86,1.55
11515733000,0.99939,-0.009766,0.033508,-0.000488,0.011719,-0.019531,0.027344,9.048045,,,
11536390000,0.99939,-0.009766,0.033508,-0.000488,0.011719,0.019531,-0.011719,9.068702,,,
11556624000,0.99939,-0.009766,0.033508,-0.000488,0.011719,0.019531,-0.011719,9.088936,,,
11585977000,0.99939,-0.009766,0.033508,-0.000488,-0.027344,0.019531,-0.011719,9.118289,,,
11595844000,0.99939,-0.009827,0.033508,-0.000488,0.011719,-0.019531,0.027344,9.128156,,,
11615989000,0.99939,-0.009827,0.033508,-0.000488,0.011719,0.019531,0.027344,9.148301,,,
11635760000,0.99939,-0.009827,0.033508,-0.000488,-0.027344,0.019531,0.027344,9.168072,,,
11667886000,0.99939,-0.009827,0.033508,-0.000427,-0.027344,0.019531,0.027344,9.200198,,,
11675558000,0.99939,-0.009827,0.033508,-0.000427,-0.027344,-0.019531,-0.011719,9.20787,,,
11696024000,0.99939,-0.009827,0.033508,-0.000427,0.011719,0.019531,-0.011719,9.228336,3.91,2.87,1.53
11716053000,0.99939,-0.009766,0.033508,-0.000488,-0.027344,0.019531,-0.011719,9.248365,,,
11746185000,0.99939,-0.009766,0.033508,-0.000488,0.011719,0.019531,0.027344,9.278497,,,
11755594000,0.99939,-0.009766,0.033508,-0.000488,0.011719,-0.019531,0.027344,9.287906,,,
11775907000,0.99939,-0.009766,0.033508,-0.000488,-0.027344,-0.019531,-0.011719,9.308219,,,
11796467000,0.99939,-0.009766,0.033508,-0.000488,0.011719,0.019531,-0.011719,9.328779,,,
11820713000,0.99939,-0.009705,0.033569,-0.000488,0.011719,-0.019531,-0.011719,9.353025,,,
11835641000,0.99939,-0.009705,0.033508,-0.000488,0.011719,0.019531,-0.011719,9.367953,,,
11855228000,0.99939,-0.009705,0.033508,-0.000549,0.011719,-0.019531,0.027344,9.38754,,,
11880097000,0.99939,-0.009705,0.033508,-0.000549,0.011719,0.019531,0.027344,9.412409,,,
11895156000,0.99939,-0.009705,0.033508,-0.000549,0.011719,0.019531,-0.011719,9.427468,3.92,2.84,1.55
11915503000,0.99939,-0.009705,0.033508,-0.000549,0.011719,-0.019531,0.027344,9.447815,,,
11935488000,0.99939,-0.009705,0.033508,-0.000549,-0.027344,0.019531,-0.011719,9.4678,,,
11955552000,0.99939,-0.009705,0.033508,-0.000549,0.011719,0.019531,0.027344,9.487864,,,
11985180000,0.99939,-0.009705,0.033508,-0.000549,-0.027344,-0.019531,0.027344,9.517492,,,
12001777000,0.99939,-0.009705,0.033508,-0.000549,0.011719,0.019531,0.027344,9.534089,,,
12015102000,0.99939,-0.009705,0.033508,-0.000549,0.011719,0.058594,0.066406,9.547414,,,
12035259000,0.99939,-0.009705,0.033569,-0.000549,-0.027344,-0.019531,-0.011719,9.567571,,,
12065119000,0.99939,-0.009766,0.033569,-0.000549,0.011719,0.011719,0.066406,9.597431,,,
12076242000,0.99939,-0.009705,0.033508,-0.000549,0.011719,0.011719,0.027344,9.608554,,,
12095128000,0.99939,-0.009705,0.033569,-0.000549,0.011719,0.050781,-0.011719,9.62744,3.84,2.79,1.53
12124041000,0.99939,-0.009644,0.033508,-0.000549,0.011719,0.011719,-0.011719,9.656353,,,
12134394000,0.99939,-0.009644,0.033508,-0.000549,0.011719,0.011719,-0.011719,9.666706,,,
12154633000,0.99939,-0.009644,0.033569,-0.000549,0.011719,0.011719,-0.011719,9.686945,,,
12175343000,0.99939,-0.009644,0.033508,-0.000488,0.003906,0.011719,-0.011719,9.707655,,,
12204009000,0.99939,-0.009644,0.033508,-0.000488,-0.035156,-0.019531,-0.011719,9.736321,,,
12214726000,0.99939,-0.009644,0.033508,-0.000488,-0.035156,0.019531,-0.011719,9.747038,,,
12235023000,0.99939,-0.009705,0.033569,-0.000488,0.003906,0.019531,0.027344,9.767335,,,
12255017000,0.99939,-0.009827,0.033569,-0.000366,0.003906,-0.097656,-0.050781,9.787329,,,
12284019000,0.99939,-0.010559,0.03363,0.000793,0.320312,-0.308594,-0.089844,9.816331,,,
12294250000,0.99939,-0.011292,0.033752,0.002075,0.617188,-0.800781,-0.203125,9.826562,3.88,2.76,1.54
12315049000,0.999329,-0.012695,0.034058,0.005554,0.378906,-0.546875,-0.003906,9.847361,,,
12334663000,0.999268,-0.013855,0.03418,0.008972,0.035156,0.113281,-0.003906,9.866975,,,
12364055000,0.999268,-0.014893,0.03418,0.011169,-0.070312,0.074219,-0.347656,9.896367,,,
12373817000,0.999207,-0.015137,0.034241,0.011658,0.035156,0.191406,0.300781,9.906129,,,
12394676000,0.999207,-0.015564,0.034302,0.012451,0.152344,0.007812,0.339844,9.926988,,,
12414619000,0.999207,-0.015869,0.034302,0.013245,0.042969,-0.015625,0.117188,9.946931,,,
12434912000,0.999146,-0.016357,0.034241,0.014404,0.234375,-0.09375,0.003906,9.967224,,,
12455160000,0.999146,-0.017883,0.033875,0.015686,0.535156,-0.269531,0.074219,9.987472,,,
12474695000,0.999146,-0.017761,0.033325,0.015564,1.214844,0.636719,-0.339844,10.007007,,,
12497695000,0.999268,-0.015442,0.032104,0.015625,1.398438,0.144531,0.082031,10.030007,3.94,2.81,1.55
12514221000,0.999268,-0.015686,0.031189,0.015503,1.03125,0.488281,-0.847656,10.046533,,,
12534679000,0.999268,-0.015869,0.031128,0.015564,0.617188,-0.199219,1.566406,10.066991,,,
12555005000,0.999268,-0.015808,0.031189,0.015503,0.355469,0.902344,-0.082031,10.087317,,,
12574677000,0.999268,-0.015747,0.030945,0.015503,0.042969,-0.390625,0.457031,10.106989,,,
12594661000,0.999268,-0.015686,0.030945,0.015503,0.417969,0.105469,-0.121094,10.126973,,,
12614701000,0.999268,-0.015381,0.030823,0.015198,0.226562,-0.160156,0.035156,10.147013,,,
12643223000,0.999329,-0.015564,0.03009,0.014038,-0.171875,0.25,-0.195312,10.175535,,,
12653345000,0.999329,-0.015625,0.029724,0.013489,-0.371094,0.097656,-0.003906,10.185657,,,
12682411000,0.99939,-0.015564,0.029297,0.012756,-0.570312,-0.09375,-0.011719,10.214723,,,
12702933000,0.99939,-0.015869,0.029114,0.012878,-0.234375,-0.167969,0.066406,10.235245,3.86,2.84,1.57
12713305000,0.99939,-0.015869,0.028992,0.012817,-0.050781,0.023438,-0.242188,10.245617,,,
12734689000,0.99939,-0.016052,0.028625,0.012329,-0.242188,0.183594,0.027344,10.267001,,,
12762230000,0.99939,-0.016052,0.028442,0.012146,-0.289062,0.375,-0.242188,10.294542,,,
12773282000,0.99939,-0.015869,0.028442,0.012085,-0.59375,-0.046875,0.292969,10.305594,,,
12802662000,0.99939,-0.015991,0.028381,0.012085,-0.679688,0.03125,0.101562,10.334974,,,
12823046000,0.99939,-0.016113,0.02832,0.012024,-0.679688,0.144531,0.066406,10.355358,,,
12841903000,0.99939,-0.016113,0.028198,0.011902,-0.679688,0.066406,0.027344,10.374215,,,
12866567000,0.99939,-0.016052,0.028137,0.011719,-0.488281,0.039062,-0.050781,10.398879,,,
12881893000,0.99939,-0.016174,0.028015,0.011658,-0.410156,0.03125,-0.011719,10.414205,,,
12901745000,0.99939,-0.016113,0.028015,0.011658,0.011719,0.039062,0.101562,10.434057,3.8,2.9,1.57
12922146000,0.99939,-0.016113,0.027954,0.011658,-0.105469,-0.070312,-0.128906,10.454458,,,
12944781000,0.99939,-0.016174,0.027832,0.011719,-0.035156,-0.070312,-0.050781,10.477093,,,
12962187000,0.99939,-0.016174,0.027832,0.011658,-0.113281,0.160156,0.140625,10.494499,,,
12981979000,0.99939,-0.016235,0.02771,0.011597,-0.152344,0.046875,-0.011719,10.514291,,,
13001918000,0.99939,-0.016357,0.027588,0.011475,0.117188,0.121094,0.027344,10.53423,,,
13023507000,0.999451,-0.016235,0.027588,0.011475,0.148438,-0.03125,0.066406,10.555819,,,
13042109000,0.999451,-0.016296,0.027466,0.011414,0.109375,0.007812,-0.011719,10.574421,,,
13061675000,0.999451,-0.016296,0.027405,0.01123,-0.082031,0.046875,0.066406,10.593987,,,
13082025000,0.999451,-0.016296,0.027222,0.011108,-0.199219,-0.144531,-0.089844,10.614337,,,
13108659000,0.999451,-0.016296,0.0271,0.010925,-0.207031,0.199219,-0.011719,10.640971,3.83,2.86,1.57
13121650000,0.999451,-0.016296,0.026917,0.010498,-0.128906,0.199219,-0.011719,10.653962,,,
13141508000,0.999451,-0.016296,0.026794,0.010315,-0.167969,-0.109375,0.101562,10.67382,,,
13165815000,0.999451,-0.016235,0.026733,0.010254,-0.175781,0.007812,0.101562,10.698127,,,
13181473000,0.999451,-0.016174,0.026611,0.010132,-0.058594,0.082031,0.019531,10.713785,,,
13203090000,0.999451,-0.016174,0.026489,0.010071,-0.167969,0.007812,-0.027344,10.735402,,,
13221622000,0.999451,-0.016235,0.026367,0.009949,0.140625,-0.070312,-0.027344,10.753934,,,
13247480000,0.999451,-0.016296,0.026245,0.009827,-0.242188,-0.039062,-0.011719,10.779792,,,
13261772000,0.999451,-0.016296,0.026184,0.009766,-0.195312,0.035156,0.027344,10.794084,,,
13281375000,0.999512,-0.016296,0.026062,0.009583,-0.265625,0.074219,0.066406,10.813687,,,
13310059000,0.999512,-0.016235,0.026001,0.009583,-0.496094,-0.117188,0.066406,10.842371,3.9,2.87,1.58
13320742000,0.999512,-0.016174,0.026001,0.009583,0.097656,0.0,0.027344,10.853054,,,
13342390000,0.999512,-0.016052,0.026062,0.009583,0.097656,0.0,0.140625,10.874702,,,
13360861000,0.999512,-0.016052,0.026062,0.009583,0.105469,0.0,-0.058594,10.893173,,,
13381402000,0.999512,-0.016113,0.026001,0.009521,0.105469,0.0,0.019531,10.913714,,,
13401620000,0.999512,-0.016113,0.026001,0.009521,0.066406,0.0,-0.019531,10.933932,,,
13427434000,0.999512,-0.016113,0.026001,0.009521,0.097656,0.035156,0.019531,10.959746,,,
13441137000,0.999512,-0.016052,0.02594,0.00946,0.097656,0.0,0.019531,10.973449,,,
13461162000,0.999512,-0.016113,0.02594,0.00946,0.050781,0.035156,0.019531,10.993474,,,
13480302000,0.999512,-0.016113,0.02594,0.00946,0.089844,0.0,-0.019531,11.012614,,,
13506694000,0.999512,-0.016174,0.02594,0.00946,0.042969,0.035156,-0.019531,11.039006,3.87,2.81,1.58
13520565000,0.999512,-0.016174,0.02594,0.00946,0.082031,-0.007812,0.019531,11.052877,,,
13546767000,0.999512,-0.016174,0.02594,0.00946,0.074219,-0.007812,0.019531,11.079079,,,
13560940000,0.999512,-0.016235,0.025879,0.009399,0.074219,0.035156,0.019531,11.093252,,,
13580726000,0.999512,-0.016174,0.025879,0.00946,0.027344,0.0,0.019531,11.113038,,,
13600782000,0.999512,-0.016174,0.025879,0.00946,0.027344,0.035156,-0.019531,11.133094,,,
13624726000,0.999512,-0.016174,0.025879,0.00946,0.058594,0.0,-0.019531,11.157038,,,
13640258000,0.999512,-0.016174,0.025879,0.00946,0.058594,0.0,0.019531,11.17257,,,
13660264000,0.999512,-0.016235,0.025879,0.00946,0.050781,0.0,-0.019531,11.192576,,,
13680541000,0.999512,-0.016235,0.025818,0.00946,0.011719,0.0,0.019531,11.212853,,,
13701117000,0.999512,-0.016235,0.025879,0.00946,0.003906,0.0,-0.019531,11.233429,3.87,2.87,1.56
13720496000,0.999512,-0.016235,0.025879,0.00946,0.042969,0.0,0.019531,11.252808,,,
13740172000,0.999512,-0.016235,0.025818,0.00946,0.003906,0.035156,0.019531,11.272484,,,
13760691000,0.999512,-0.016235,0.025818,0.00946,0.003906,0.0,-0.019531,11.293003,,,
13785360000,0.999512,-0.016235,0.025818,0.00946,-0.003906,0.0,0.019531,11.317672,,,
13800258000,0.999512,-0.016174,0.025818,0.00946,-0.003906,0.0,-0.019531,11.33257,,,
13819694000,0.999512,-0.016235,0.025818,0.00946,0.035156,0.0,-0.019531,11.352006,,,
13840103000,0.999512,-0.016174,0.025818,0.00946,0.035156,0.035156,0.019531,11.372415,,,
13864219000,0.999512,-0.016174,0.025818,0.00946,0.035156,-0.007812,0.019531,11.396531,,,
13879700000,0.999512,-0.016174,0.025818,0.00946,0.027344,0.035156,-0.019531,11.412012,,,
13899593000,0.999512,-0.016174,0.025879,0.009521,-0.011719,0.0,0.019531,11.431905,3.88,2.82,1.55
13921499000,0.999512,-0.016174,0.025818,0.00946,0.027344,0.0,0.019531,11.453811,,,
13949303000,0.999512,-0.016174,0.025818,0.00946,0.027344,0.0,0.019531,11.481615,,,
13966232000,0.999512,-0.016174,0.025879,0.00946,0.027344,-0.007812,0.019531,11.498544,,,
13979682000,0.999512,-0.016174,0.025818,0.00946,0.027344,-0.007812,0.019531,11.511994,,,
13998881000,0.999512,-0.016174,0.025818,0.009521,-0.011719,0.0,0.019531,11.531193,,,
14029171000,0.999512,-0.016174,0.025818,0.009521,-0.019531,0.027344,0.011719,11.561483,,,
14039069000,0.999512,-0.016174,0.025818,0.009521,0.019531,0.035156,0.011719,11.571381,,,
14059298000,0.999512,-0.016174,0.025818,0.009521,0.019531,-0.007812,0.011719,11.59161,,,
14079268000,0.999512,-0.016174,0.025818,0.00946,0.019531,-0.046875,-0.027344,11.61158,,,
14102563000,0.999512,-0.016174,0.025818,0.009521,-0.019531,-0.007812,0.011719,11.634875,3.86,2.79,1.56
14118786000,0.999512,-0.016174,0.025818,0.009521,-0.019531,-0.007812,0.011719,11.651098,,,
14138762000,0.999512,-0.016174,0.025818,0.009521,0.019531,-0.007812,0.011719,11.671074,,,
14158525000,0.999512,-0.016174,0.025818,0.009521,0.019531,-0.007812,0.011719,11.690837,,,
14188301000,0.999512,-0.016174,0.025818,0.009521,0.019531,0.0,0.011719,11.720613,,,
14198842000,0.999512,-0.016174,0.025818,0.009521,-0.019531,0.0,0.011719,11.731154,,,
14218942000,0.999512,-0.016235,0.025757,0.009521,0.019531,0.035156,0.011719,11.751254,,,
14239618000,0.999512,-0.016235,0.025757,0.009521,0.019531,0.035156,0.011719,11.77193,,,
14268694000,0.999512,-0.016235,0.025757,0.009521,-0.019531,0.0,0.011719,11.801006,,,
14283862000,0.999512,-0.016174,0.025818,0.009521,-0.019531,0.0,0.011719,11.816174,,,
14298141000,0.999512,-0.016174,0.025818,0.00946,-0.019531,0.035156,0.011719,11.830453,3.86,2.79,1.56
14318662000,0.999512,-0.016174,0.025818,0.00946,0.019531,-0.007812,0.011719,11.850974,,,
14339425000,0.999512,-0.016235,0.025818,0.00946,0.019531,-0.007812,0.011719,11.871737,,,
14362557000,0.999512,-0.016235,0.025818,0.00946,0.019531,0.027344,0.011719,11.894869,,,
14378345000,0.999512,-0.016235,0.025818,0.00946,-0.019531,-0.007812,0.011719,11.910657,,,
14398742000,0.999512,-0.016235,0.025818,0.00946,-0.019531,-0.007812,0.011719,11.931054,,,
14418463000,0.999512,-0.016235,0.025757,0.00946,0.019531,-0.007812,0.011719,11.950775,,,
14447549000,0.999512,-0.016235,0.025757,0.00946,0.019531,0.027344,0.011719,11.979861,,,
14458172000,0.999512,-0.016235,0.025757,0.00946,0.019531,-0.007812,0.011719,11.990484,,,
14477780000,0.999512,-0.016235,0.025757,0.00946,-0.019531,-0.007812,0.011719,12.010092,,,
14497667000,0.999512,-0.016174,0.025757,0.00946,-0.019531,-0.007812,0.011719,12.029979,3.88,2.77,1.57
14527345000,0.999512,-0.016174,0.025757,0.00946,0.019531,-0.007812,-0.027344,12.059657,,,
14538010000,0.999512,-0.016174,0.025757,0.00946,0.019531,-0.015625,0.011719,12.070322,,,
14558210000,0.999512,-0.016174,0.025757,0.00946,-0.019531,0.019531,0.011719,12.090522,,,
14578378000,0.999512,-0.016113,0.025757,0.00946,-0.019531,-0.015625,-0.027344,12.11069,,,
14607357000,0.999512,-0.016113,0.025757,0.009521,0.019531,-0.015625,0.011719,12.139669,,,
14624388000,0.999512,-0.016113,0.025757,0.009521,0.019531,-0.015625,0.011719,12.1567,,,
14638050000,0.999512,-0.016174,0.025757,0.009521,-0.019531,0.019531,0.011719,12.170362,,,
14658127000,0.999512,-0.016174,0.025757,0.009521,0.019531,-0.007812,0.011719,12.190439,,,
14677614000,0.999512,-0.016174,0.025696,0.009521,-0.019531,-0.007812,0.011719,12.209926,,,
14697751000,0.999512,-0.016174,0.025696,0.009521,-0.019531,-0.007812,0.011719,12.230063,3.89,2.82,1.56
14717495000,0.999512,-0.016113,0.025757,0.009521,0.019531,-0.007812,0.011719,12.249807,,,
14746288000,0.999512,-0.016113,0.025757,0.009521,0.019531,-0.007812,-0.027344,12.2786,,,
14754031000,0.999512,-0.016113,0.025757,0.009521,0.019531,-0.007812,0.011719,12.286343,,,
14775700000,0.999512,-0.016113,0.025757,0.009521,0.019531,0.027344,-0.027344,12.308012,,,
14799777000,0.999512,-0.016113,0.025757,0.009521,0.019531,-0.007812,-0.027344,12.332089,,,
14813740000,0.999512,-0.016174,0.025757,0.009521,0.019531,-0.007812,-0.027344,12.346052,,,
14835480000,0.999512,-0.016174,0.025757,0.009521,0.019531,0.0,0.011719,12.367792,,,
14855461000,0.999512,-0.016174,0.025757,0.009521,-0.019531,0.0,-0.027344,12.387773,,,
14876886000,0.999512,-0.016235,0.025696,0.009521,-0.019531,0.0,0.011719,12.409198,,,
14899740000,0.999512,-0.016235,0.025696,0.009521,0.019531,0.0,-0.027344,12.432052,3.88,2.89,1.58
14915262000,0.999512,-0.016235,0.025696,0.009521,0.019531,0.0,0.011719,12.447574,,,
14935528000,0.999512,-0.016174,0.025696,0.009521,-0.019531,0.0,-0.027344,12.46784,,,
14956949000,0.999512,-0.016235,0.025696,0.009583,-0.019531,0.0,-0.019531,12.489261,,,
14980937000,0.999512,-0.016235,0.025696,0.009583,-0.019531,0.0,0.019531,12.513249,,,
14995466000,0.999512,-0.016235,0.025696,0.009583,-0.019531,0.035156,0.019531,12.527778,,,
15015507000,0.999512,-0.016235,0.025696,0.009583,0.019531,0.0,0.011719,12.547819,,,
15040587000,0.999512,-0.016235,0.025635,0.009583,0.019531,0.0,0.011719,12.572899,,,
15054570000,0.999512,-0.016235,0.025635,0.009521,0.019531,0.0,0.011719,12.586882,,,
15075415000,0.999512,-0.016235,0.025635,0.009521,0.019531,0.0,0.011719,12.607727,,,
15095877000,0.999512,-0.016235,0.025635,0.009583,0.019531,0.0,-0.027344,12.628189,3.91,2.89,1.55
15123473000,0.999512,-0.016235,0.025635,0.009521,-0.027344,0.0,0.011719,12.655785,,,
15134204000,0.999512,-0.016296,0.025635,0.009521,0.019531,0.0,0.011719,12.666516,,,
15156350000,0.999512,-0.016296,0.025635,0.009521,0.011719,0.0,0.011719,12.688662,,,
15175102000,0.999512,-0.016296,0.025574,0.009583,0.011719,0.0,-0.027344,12.707414,,,
15195150000,0.999512,-0.016296,0.025574,0.009521,0.011719,0.0,-0.027344,12.727462,,,
15215107000,0.999512,-0.016235,0.025574,0.009521,0.011719,0.0,0.019531,12.747419,,,
15242165000,0.999512,-0.016296,0.025574,0.009521,0.011719,0.0,0.019531,12.774477,,,
15255201000,0.999512,-0.016296,0.025574,0.009583,0.011719,0.0,-0.019531,12.787513,,,
15274911000,0.999512,-0.016296,0.025574,0.009583,0.011719,0.0,0.019531,12.807223,,,
15295302000,0.999512,-0.016235,0.025574,0.009583,0.011719,0.0,0.019531,12.827614,3.87,2.75,1.59
15318196000,0.999512,-0.016296,0.025574,0.009521,-0.027344,0.035156,-0.019531,12.850508,,,
15339686000,0.999512,-0.016296,0.025513,0.009521,0.011719,0.0,0.019531,12.871998,,,
15358269000,0.999512,-0.016296,0.025513,0.009521,0.011719,0.0,0.011719,12.890581,,,
15373873000,0.999512,-0.016296,0.025513,0.009521,0.011719,0.0,0.011719,12.906185,,,
15401123000,0.999512,-0.016296,0.025513,0.009521,-0.027344,0.035156,-0.027344,12.933435,,,
15413511000,0.999512,-0.016296,0.025513,0.009521,0.019531,0.0,-0.027344,12.945823,,,
15434701000,0.999512,-0.016296,0.025513,0.009521,0.019531,0.0,-0.027344,12.967013,,,
15457121000,0.999512,-0.016296,0.025513,0.009521,0.019531,0.0,0.019531,12.989433,,,
15477581000,0.999512,-0.016357,0.025513,0.00946,0.019531,0.0,0.019531,13.009893,,,
15502041000,0.999512,-0.016357,0.025513,0.00946,-0.027344,0.0,0.019531,13.034353,3.89,2.85,1.57
15515727000,0.999512,-0.016357,0.025513,0.00946,0.019531,0.035156,0.019531,13.048039,,,
15535497000,0.999512,-0.016357,0.025513,0.00946,0.019531,0.0,-0.019531,13.067809,,,
15561809000,0.999512,-0.016357,0.025574,0.009399,0.019531,0.0,0.019531,13.094121,,,
15575315000,0.999512,-0.016418,0.025513,0.009399,0.019531,-0.007812,-0.019531,13.107627,,,
15595472000,0.999512,-0.016357,0.025513,0.009399,0.019531,-0.007812,-0.019531,13.127784,,,
15624867000,0.999512,-0.016357,0.025513,0.009399,0.011719,-0.007812,0.019531,13.157179,,,
15642001000,0.999512,-0.016357,0.025513,0.009399,0.011719,-0.007812,0.019531,13.174313,,,
15668632000,0.999512,-0.016357,0.025513,0.009338,0.011719,-0.007812,0.019531,13.200944,,,
15674550000,0.999512,-0.016296,0.025513,0.009338,0.011719,-0.007812,0.019531,13.206862,,,
15695103000,0.999512,-0.016357,0.025513,0.009338,0.011719,-0.007812,0.019531,13.227415,3.86,2.78,1.54
15724217000,0.999512,-0.016357,0.025574,0.009338,-0.027344,-0.007812,-0.019531,13.256529,,,
15741044000,0.999512,-0.016357,0.025513,0.009338,-0.027344,-0.007812,-0.019531,13.273356,,,
15754595000,0.999512,-0.016357,0.025574,0.009338,-0.027344,-0.007812,-0.019531,13.286907,,,
15775236000,0.999512,-0.016357,0.025513,0.009338,-0.027344,-0.007812,-0.019531,13.307548,,,
15803803000,0.999512,-0.016357,0.025513,0.009338,0.019531,0.035156,0.019531,13.336115,,,
15814428000,0.999512,-0.016357,0.025513,0.009338,0.019531,0.027344,0.019531,13.34674,,,
15835175000,0.999512,-0.016357,0.025513,0.009338,-0.019531,-0.007812,0.019531,13.367487,,,
15855085000,0.999512,-0.016418,0.025513,0.009338,0.019531,-0.007812,-0.019531,13.387397,,,
15883771000,0.999512,-0.016357,0.025513,0.009338,0.019531,-0.007812,0.019531,13.416083,,,
15894267000,0.999512,-0.016357,0.025513,0.009338,0.019531,-0.007812,0.019531,13.426579,3.91,2.89,1.57
15914589000,0.999512,-0.016418,0.025513,0.009338,0.019531,-0.007812,0.019531,13.446901,,,
15943371000,0.999512,-0.016418,0.025513,0.009338,-0.019531,-0.007812,0.019531,13.475683,,,
15953948000,0.999512,-0.016418,0.025513,0.009338,0.019531,-0.007812,-0.019531,13.48626,,,
15974997000,0.999512,-0.016418,0.025513,0.009338,0.019531,-0.007812,0.019531,13.507309,,,
15994664000,0.999512,-0.016418,0.025513,0.009338,-0.019531,0.027344,-0.019531,13.526976,,,
16023154000,0.999512,-0.016418,0.025513,0.009338,0.019531,-0.007812,-0.019531,13.555466,,,
16033273000,0.999512,-0.016418,0.025513,0.009338,0.019531,-0.007812,0.019531,13.565585,,,
16054629000,0.999512,-0.016418,0.025513,0.009338,0.019531,-0.007812,-0.019531,13.586941,,,
16076177000,0.999512,-0.016418,0.025513,0.009338,-0.019531,0.027344,0.019531,13.608489,,,
16103272000,0.999512,-0.016418,0.025513,0.009338,-0.019531,-0.007812,0.019531,13.635584,3.86,2.86,1.58
16113273000,0.999512,-0.016418,0.025513,0.009338,-0.019531,-0.007812,0.019531,13.645585,,,
16134640000,0.999512,-0.016418,0.025513,0.009338,0.019531,-0.007812,-0.019531,13.666952,,,
16154646000,0.999512,-0.016418,0.025513,0.009338,0.019531,-0.007812,0.019531,13.686958,,,
16182777000,0.999512,-0.016418,0.025513,0.009338,-0.019531,0.027344,0.019531,13.715089,,,
16193227000,0.999512,-0.016418,0.025513,0.009338,0.019531,0.027344,-0.019531,13.725539,,,
16215083000,0.999512,-0.016418,0.025513,0.009338,0.019531,-0.007812,-0.019531,13.747395,,,
16234762000,0.999512,-0.016418,0.025513,0.009338,-0.019531,-0.007812,-0.019531,13.767074,,,
16263162000,0.999512,-0.016418,0.025513,0.009338,0.019531,-0.007812,0.019531,13.795474,,,
16274655000,0.999512,-0.016418,0.025513,0.009338,0.011719,0.027344,-0.019531,13.806967,,,
16308252000,0.999512,-0.016418,0.025513,0.009338,0.011719,-0.007812,0.019531,13.840564,3.85,2.74,1.56
16322759000,0.999512,-0.016418,0.025513,0.009338,0.011719,-0.007812,0.019531,13.855071,,,
16342630000,0.999512,-0.016418,0.025513,0.009338,0.011719,0.027344,0.019531,13.874942,,,
16353208000,0.999512,-0.016418,0.025513,0.009338,0.011719,-0.007812,0.019531,13.88552,,,
16377334000,0.999512,-0.016418,0.025513,0.009338,0.011719,-0.007812,0.058594,13.909646,,,
16401970000,0.999512,-0.016418,0.025513,0.009338,0.011719,-0.007812,-0.019531,13.934282,,,
16422260000,0.999512,-0.016418,0.025513,0.009338,0.011719,-0.007812,0.019531,13.954572,,,
16443542000,0.999512,-0.016418,0.025513,0.009338,-0.027344,-0.007812,0.019531,13.975854,,,
16453358000,0.999512,-0.016418,0.025513,0.009338,0.011719,-0.007812,-0.019531,13.98567,,,
16474682000,0.999512,-0.016418,0.025513,0.009338,0.011719,-0.007812,0.019531,14.006994,,,
16499876000,0.999512,-0.016418,0.025513,0.009338,0.011719,-0.007812,0.019531,14.032188,3.81,2.77,1.58
16529184000,0.999512,-0.016418,0.025513,0.009338,0.011719,-0.007812,-0.019531,14.061496,,,
16541808000,0.999512,-0.016418,0.025513,0.009338,0.011719,-0.007812,0.019531,14.07412,,,
16561719000,0.999512,-0.016418,0.025513,0.009338,-0.027344,-0.007812,0.019531,14.094031,,,
16573347000,0.999512,-0.016418,0.025513,0.009338,-0.027344,-0.007812,-0.019531,14.105659,,,
16601784000,0.999512,-0.016418,0.025513,0.009338,-0.027344,-0.007812,-0.019531,14.134096,,,
16622186000,0.999512,-0.016418,0.025513,0.009338,0.019531,-0.007812,0.019531,14.154498,,,
16641623000,0.999512,-0.016418,0.025513,0.009338,0.019531,0.0,-0.019531,14.173935,,,
16667856000,0.999512,-0.016418,0.025513,0.009338,0.019531,0.0,0.019531,14.200168,,,
16681928000,0.999512,-0.016418,0.025513,0.009338,0.019531,0.0,0.019531,14.21424,,,
16701166000,0.999512,-0.016418,0.025513,0.009338,0.019531,0.0,0.019531,14.233478,3.87,2.79,1.58
16724786000,0.999512,-0.016418,0.025513,0.009338,0.019531,0.0,-0.019531,14.257098,,,
16733267000,0.999512,-0.016418,0.025513,0.009338,0.019531,0.0,0.019531,14.265579,,,
16761452000,0.999512,-0.016418,0.025513,0.009338,0.011719,0.035156,0.019531,14.293764,,,
16781268000,0.999512,-0.016418,0.025513,0.009338,0.011719,0.0,0.019531,14.31358,,,
16801285000,0.999512,-0.016418,0.025513,0.009338,0.011719,0.0,0.019531,14.333597,,,
16821155000,0.999512,-0.016418,0.025513,0.009338,-0.027344,-0.007812,-0.019531,14.353467,,,
16840958000,0.999512,-0.016418,0.025513,0.009338,-0.027344,-0.007812,-0.019531,14.37327,,,
16861258000,0.999512,-0.016418,0.025513,0.009338,-0.027344,-0.007812,0.019531,14.39357,,,
16883888000,0.999512,-0.016418,0.025513,0.009338,0.019531,-0.007812,-0.019531,14.4162,,,
16900854000,0.999512,-0.016418,0.025513,0.009338,0.019531,-0.007812,0.019531,14.433166,3.88,2.79,1.59
16920807000,0.999512,-0.016418,0.025513,0.009338,0.019531,-0.007812,-0.019531,14.453119,,,
16940825000,0.999512,-0.016418,0.025513,0.009338,-0.019531,0.0,0.019531,14.473137,,,
16962906000,0.999512,-0.016418,0.025513,0.009338,-0.019531,0.0,0.019531,14.495218,,,
16981082000,0.999512,-0.016418,0.025513,0.009338,0.019531,0.0,0.019531,14.513394,,,
17000510000,0.999512,-0.016418,0.025513,0.009338,-0.019531,0.0,0.019531,14.532822,,,
17020945000,0.999512,-0.016418,0.025513,0.009338,0.019531,0.0,0.019531,14.553257,,,
17044975000,0.999512,-0.016418,0.025513,0.009338,0.019531,0.0,0.019531,14.577287,,,
17060702000,0.999512,-0.016418,0.025513,0.009338,0.019531,0.0,0.019531,14.593014,,,
17080165000,0.999512,-0.016418,0.025513,0.009338,0.019531,0.0,-0.019531,14.612477,,,
17106091000,0.999512,-0.016418,0.025513,0.009338,0.019531,0.0,0.019531,14.638403,3.85,2.8,1.56
17120564000,0.999512,-0.016418,0.025513,0.009338,-0.019531,0.0,-0.019531,14.652876,,,
17140337000,0.999512,-0.016418,0.025513,0.009338,-0.019531,0.0,0.019531,14.672649,,,
17162113000,0.999512,-0.016418,0.025513,0.009338,-0.019531,0.0,0.019531,14.694425,,,
17186866000,0.999512,-0.016418,0.025513,0.009338,-0.019531,0.0,0.019531,14.719178,,,
17200137000,0.999512,-0.016418,0.025513,0.009338,0.019531,0.0,-0.019531,14.732449,,,
17220277000,0.999512,-0.016418,0.025513,0.009338,0.019531,0.0,0.019531,14.752589,,,
17242589000,0.999512,-0.016418,0.025513,0.009338,0.019531,0.0,0.019531,14.774901,,,
17260308000,0.999512,-0.016418,0.025513,0.009338,0.019531,0.0,0.019531,14.79262,,,
17280306000,0.999512,-0.016418,0.025513,0.009338,0.019531,0.0,-0.019531,14.812618,,,
17301113000,0.999512,-0.016418,0.025513,0.009338,0.019531,0.027344,-0.019531,14.833425,3.88,2.8,1.55
17329702000,0.999512,-0.016418,0.025513,0.009338,-0.019531,0.027344,0.019531,14.862014,,,
17345948000,0.999512,-0.016418,0.025513,0.009338,-0.019531,0.027344,-0.019531,14.87826,,,
17359854000,0.999512,-0.016418,0.025513,0.009338,0.019531,-0.007812,0.019531,14.892166,,,
17379331000,0.999512,-0.016418,0.025513,0.009338,0.019531,-0.007812,0.058594,14.911643,,,
17405192000,0.999512,-0.016418,0.025513,0.009338,0.019531,-0.007812,0.019531,14.937504,,,
17419697000,0.999512,-0.016418,0.025513,0.009338,-0.019531,-0.007812,-0.019531,14.952009,,,
17439589000,0.999512,-0.016418,0.025513,0.009338,0.019531,-0.007812,0.019531,14.971901,,,
17460598000,0.999512,-0.016418,0.025513,0.009338,-0.019531,-0.007812,-0.019531,14.99291,,,
17484091000,0.999512,-0.016418,0.025513,0.009338,0.019531,-0.007812,0.019531,15.016403,,,
17498976000,0.999512,-0.016418,0.025513,0.009338,-0.019531,-0.007812,0.019531,15.031288,3.86,2.74,1.56
17518952000,0.999512,-0.016418,0.025513,0.009338,0.019531,-0.007812,-0.019531,15.051264,,,
17539809000,0.999512,-0.016418,0.025513,0.009338,0.019531,-0.007812,0.019531,15.072121,,,
17558892000,0.999512,-0.016418,0.025513,0.009338,-0.019531,-0.007812,0.019531,15.091204,,,
17578942000,0.999512,-0.016418,0.025513,0.009338,0.019531,-0.007812,0.019531,15.111254,,,
17603309000,0.999512,-0.016418,0.025513,0.009338,-0.019531,-0.007812,-0.019531,15.135621,,,
17618956000,0.999512,-0.016418,0.025513,0.009338,0.019531,-0.007812,-0.019531,15.151268,,,
17638858000,0.999512,-0.016418,0.025513,0.009338,0.019531,-0.007812,0.019531,15.17117,,,
17658969000,0.999512,-0.016418,0.025513,0.009338,0.019531,-0.007812,0.019531,15.191281,,,
17688844000,0.999512,-0.016418,0.025513,0.009338,-0.019531,-0.007812,-0.019531,15.221156,,,
17698600000,0.999512,-0.016418,0.025513,0.009338,0.019531,-0.007812,-0.019531,15.230912,3.85,2.77,1.56
17718773000,0.999512,-0.016418,0.025513,0.009338,0.019531,0.0,0.019531,15.251085,,,
17738534000,0.999512,-0.016418,0.025513,0.009338,0.019531,0.0,-0.019531,15.270846,,,
17758636000,0.999512,-0.016418,0.025513,0.009338,0.019531,0.0,-0.019531,15.290948,,,
17778554000,0.999512,-0.016418,0.025513,0.009338,0.019531,0.0,0.019531,15.310866,,,
17802790000,0.999512,-0.016418,0.025513,0.009338,-0.019531,0.0,0.019531,15.335102,,,
17818161000,0.999512,-0.016418,0.025513,0.009338,0.019531,0.0,-0.019531,15.350473,,,
17838908000,0.999512,-0.016418,0.025513,0.009338,0.019531,0.0,0.019531,15.37122,,,
17858510000,0.999512,-0.016418,0.025513,0.009338,-0.019531,0.0,0.019531,15.390822,,,
17880969000,0.999512,-0.016418,0.025513,0.009338,0.019531,0.035156,0.019531,15.413281,,,
17898350000,0.999512,-0.016418,0.025513,0.009338,0.019531,0.0,0.019531,15.430662,3.87,2.8,1.58
17918367000,0.999512,-0.016418,0.025513,0.009338,-0.019531,0.0,0.058594,15.450679,,,
17938028000,0.999512,-0.016418,0.025513,0.009338,-0.019531,0.0,0.011719,15.47034,,,
17968413000,0.999512,-0.016418,0.025513,0.009338,-0.019531,0.0,0.011719,15.500725,,,
17985325000,0.999512,-0.016418,0.025513,0.009338,0.019531,0.027344,0.011719,15.517637,,,
17997766000,0.999512,-0.016418,0.025513,0.009338,0.019531,-0.007812,0.011719,15.530078,,,
18031281000,0.999512,-0.016418,0.025513,0.009338,0.019531,-0.007812,-0.027344,15.563593,,,
18048158000,0.999512,-0.016418,0.025513,0.009338,0.019531,-0.007812,-0.027344,15.58047,,,
18058189000,0.999512,-0.016418,0.025513,0.009338,-0.019531,-0.007812,-0.027344,15.590501,,,
18077493000,0.999512,-0.016418,0.025513,0.009338,0.019531,-0.007812,0.011719,15.609805,,,
18097722000,0.999512,-0.016418,0.025513,0.009338,0.019531,-0.007812,0.011719,15.630034,,,
18126032000,0.999512,-0.016418,0.025513,0.009338,-0.019531,0.027344,0.019531,15.658344,3.88,2.84,1.59
18137496000,0.999512,-0.016418,0.025513,0.009338,-0.019531,-0.007812,0.019531,15.669808,,,
18157962000,0.999512,-0.016418,0.025513,0.009338,0.019531,-0.007812,-0.019531,15.690274,,,
18187699000,0.999512,-0.016418,0.025513,0.009338,-0.019531,0.027344,0.019531,15.720011,,,
18197622000,0.999512,-0.016418,0.025513,0.009338,-0.019531,-0.007812,-0.019531,15.729934,,,
18217243000,0.999512,-0.016418,0.025513,0.009338,0.019531,-0.007812,-0.019531,15.749555,,,
18236978000,0.999512,-0.016418,0.025513,0.009338,0.019531,0.027344,0.019531,15.76929,,,
18267011000,0.999512,-0.016418,0.025513,0.009338,-0.019531,-0.007812,-0.019531,15.799323,,,
18277605000,0.999512,-0.016418,0.025513,0.009338,0.019531,-0.007812,0.019531,15.809917,,,
18297088000,0.999512,-0.016418,0.025513,0.009338,0.019531,-0.007812,-0.019531,15.8294,,,
18327604000,0.999512,-0.016418,0.025513,0.009338,-0.019531,-0.007812,0.019531,15.859916,3.83,2.76,1.56
18341170000,0.999512,-0.016418,0.025513,0.009338,-0.019531,-0.007812,0.019531,15.873482,,,
18356718000,0.999512,-0.016418,0.025513,0.009338,0.019531,-0.007812,0.019531,15.88903,,,
18376844000,0.999512,-0.016418,0.025513,0.009338,0.019531,0.027344,-0.019531,15.909156,,,
18398928000,0.999512,-0.016418,0.025513,0.009338,-0.019531,-0.007812,0.019531,15.93124,,,
18416504000,0.999512,-0.016418,0.025513,0.009338,0.019531,-0.007812,0.019531,15.948816,,,
18437191000,0.999512,-0.016418,0.025513,0.009338,0.019531,-0.007812,0.011719,15.969503,,,
18466966000,0.999512,-0.016418,0.025513,0.009338,-0.019531,-0.007812,0.011719,15.999278,,,
18476541000,0.999512,-0.016418,0.025513,0.009338,0.019531,-0.007812,0.011719,16.008853,,,
18496492000,0.999512,-0.016418,0.025513,0.009338,0.019531,-0.007812,0.011719,16.028804,,,
18516655000,0.999512,-0.016418,0.025513,0.009338,0.019531,-0.007812,0.011719,16.048967,3.83,2.88,1.59
18548031000,0.999512,-0.016418,0.025513,0.009338,0.019531,-0.007812,-0.027344,16.080343,,,
18556724000,0.999512,-0.016418,0.025513,0.009338,0.011719,-0.007812,0.011719,16.089036,,,
18576080000,0.999512,-0.016418,0.025513,0.009338,0.011719,-0.007812,0.011719,16.108392,,,
18606080000,0.999512,-0.016418,0.025513,0.009338,-0.027344,0.027344,-0.019531,16.138392,,,
18615939000,0.999512,-0.016418,0.025513,0.009338,0.011719,-0.007812,-0.019531,16.148251,,,
18646234000,0.999512,-0.016418,0.025513,0.009338,-0.027344,-0.007812,0.019531,16.178546,,,
18655871000,0.999512,-0.016418,0.025513,0.009338,0.011719,-0.007812,0.019531,16.188183,,,
18676454000,0.999512,-0.016418,0.025513,0.009338,0.019531,-0.007812,-0.019531,16.208766,,,
18695981000,0.999512,-0.016418,0.025513,0.009338,-0.019531,0.027344,-0.019531,16.228293,,,
18716681000,0.999512,-0.016418,0.025513,0.009338,0.019531,-0.007812,-0.019531,16.248993,3.85,2.8,1.56
18746275000,0.999512,-0.016418,0.025513,0.009338,0.019531,-0.007812,-0.019531,16.278587,,,
18755609000,0.999512,-0.016418,0.025513,0.009338,0.019531,0.027344,0.019531,16.287921,,,
18776391000,0.999512,-0.016418,0.025513,0.009338,-0.019531,-0.007812,0.019531,16.308703,,,
18807524000,0.999512,-0.016418,0.025513,0.009338,0.019531,-0.007812,0.019531,16.339836,,,
18816154000,0.999512,-0.016418,0.025513,0.009338,-0.019531,-0.007812,-0.019531,16.348466,,,
18845601000,0.999512,-0.016418,0.025513,0.009338,0.019531,-0.046875,-0.019531,16.377913,,,
18865464000,0.999512,-0.016418,0.025513,0.009338,0.019531,-0.007812,-0.019531,16.397776,,,
18875694000,0.999512,-0.016418,0.025513,0.009338,0.019531,-0.007812,0.019531,16.408006,,,
18895683000,0.999512,-0.016418,0.025513,0.009338,0.011719,-0.007812,0.019531,16.427995,,,
18915521000,0.999512,-0.016418,0.025513,0.009338,0.011719,0.027344,0.019531,16.447833,3.87,2.76,1.58
18945400000,0.999512,-0.016418,0.025513,0.009338,-0.027344,0.027344,0.019531,16.477712,,,
18955327000,0.999512,-0.016418,0.025513,0.009338,0.011719,-0.007812,0.019531,16.487639,,,
18985583000,0.999512,-0.016418,0.025513,0.009338,0.011719,-0.007812,0.019531,16.517895,,,
18995346000,0.999512,-0.016418,0.025513,0.009338,-0.027344,-0.007812,0.019531,16.527658,,,
19015307000,0.999512,-0.016418,0.025513,0.009338,0.011719,-0.007812,0.058594,16.547619,,,
19035243000,0.999512,-0.016418,0.025513,0.009338,0.011719,-0.007812,0.019531,16.567555,,,
19066084000,0.999512,-0.016418,0.025513,0.009338,-0.027344,-0.007812,0.019531,16.598396,,,
19080749000,0.999512,-0.016418,0.025513,0.009338,0.011719,0.027344,0.011719,16.613061,,,
19095153000,0.999512,-0.016418,0.025513,0.009338,-0.027344,0.027344,0.011719,16.627465,,,
19115475000,0.999512,-0.016418,0.025513,0.009338,-0.027344,0.027344,0.011719,16.647787,3.88,2.8,1.56
19144900000,0.999512,-0.016418,0.025513,0.009338,0.019531,-0.007812,0.011719,16.677212,,,
19165155000,0.999512,-0.016418,0.025513,0.009338,-0.019531,-0.007812,-0.027344,16.697467,,,
19174980000,0.999512,-0.016418,0.025513,0.009338,0.019531,-0.007812,0.011719,16.707292,,,
19195448000,0.999512,-0.016418,0.025513,0.009338,0.019531,-0.007812,0.011719,16.72776,,,
19224534000,0.999512,-0.016418,0.025513,0.009338,0.019531,-0.007812,0.011719,16.756846,,,
19241694000,0.999512,-0.016418,0.025513,0.009338,0.019531,-0.007812,0.011719,16.774006,,,
19255198000,0.999512,-0.016418,0.025513,0.009338,-0.019531,-0.007812,0.011719,16.78751,,,
19275214000,0.999512,-0.016418,0.025513,0.009338,0.019531,-0.007812,0.011719,16.807526,,,
19305028000,0.999512,-0.016418,0.025513,0.009338,-0.019531,-0.007812,0.011719,16.83734,3.82,2.77,1.57
19314418000,0.999512,-0.016418,0.025513,0.009338,0.019531,-0.007812,0.011719,16.84673,,,
19335048000,0.999512,-0.016418,0.025513,0.009338,0.019531,-0.007812,0.011719,16.86736,,,
19354740000,0.999512,-0.016418,0.025513,0.009338,-0.019531,-0.007812,0.011719,16.887052,,,
19384960000,0.999512,-0.016418,0.025513,0.009338,-0.019531,-0.007812,-0.027344,16.917272,,,
19401187000,0.999512,-0.016418,0.025513,0.009338,-0.019531,-0.007812,-0.027344,16.933499,,,
19414678000,0.999512,-0.016418,0.025513,0.009338,-0.019531,0.027344,0.011719,16.94699,,,
19443735000,0.999512,-0.016418,0.025513,0.009338,0.019531,-0.007812,0.011719,16.976047,,,
19464202000,0.999512,-0.016418,0.025513,0.009338,-0.019531,-0.007812,0.011719,16.996514,,,
19473956000,0.999512,-0.016418,0.025513,0.009338,0.019531,-0.007812,0.011719,17.006268,,,
19494883000,0.999512,-0.016418,0.025513,0.009338,0.019531,-0.007812,0.011719,17.027195,,,
19514679000,0.999512,-0.016418,0.025513,0.009338,0.019531,0.027344,0.011719,17.046991,3.87,2.79,1.58
19543490000,0.999512,-0.016418,0.025513,0.009338,0.019531,-0.007812,0.011719,17.075802,,,
19563687000,0.999512,-0.016418,0.025513,0.009338,0.019531,0.027344,-0.027344,17.095999,,,
19573722000,0.999512,-0.016418,0.025513,0.009338,-0.019531,-0.007812,0.011719,17.106034,,,
19594629000,0.999512,-0.016418,0.025513,0.009338,0.019531,0.027344,0.011719,17.126941,,,
19614686000,0.999512,-0.016418,0.025513,0.009338,0.019531,-0.007812,0.011719,17.146998,,,
19634646000,0.999512,-0.016418,0.025513,0.009338,0.019531,-0.007812,0.011719,17.166958,,,
19660191000,0.999512,-0.016418,0.025513,0.009338,-0.019531,0.027344,0.011719,17.192503,,,
19674275000,0.999512,-0.016418,0.025513,0.009338,0.019531,-0.007812,0.050781,17.206587,,,
19694383000,0.999512,-0.016418,0.025513,0.009338,0.019531,-0.007812,0.011719,17.226695,,,
19715490000,0.999512,-0.016418,0.025513,0.009338,-0.019531,-0.007812,-0.027344,17.247802,3.89,2.79,1.56
19742933000,0.999512,-0.016418,0.025513,0.009338,0.019531,-0.007812,0.011719,17.275245,,,
19753571000,0.999512,-0.016418,0.025513,0.009338,0.019531,-0.007812,0.011719,17.285883,,,
19775445000,0.999512,-0.016418,0.025513,0.009338,-0.019531,-0.007812,-0.027344,17.307757,,,
19794741000,0.999512,-0.016418,0.025513,0.009338,0.019531,-0.007812,-0.027344,17.327053,,,
19822743000,0.999512,-0.016418,0.025513,0.009338,0.019531,-0.007812,0.011719,17.355055,,,
19833430000,0.999512,-0.016418,0.025513,0.009338,0.019531,-0.007812,0.011719,17.365742,,,
19869477000,0.999512,-0.016418,0.025513,0.009338,0.011719,-0.007812,0.011719,17.401789,,,
19882662000,0.999512,-0.016418,0.025513,0.009338,0.011719,-0.007812,-0.027344,17.414974,,,
19903329000,0.999512,-0.016418,0.025513,0.009338,0.011719,-0.007812,0.011719,17.435641,,,
19919229000,0.999512,-0.016418,0.025513,0.009338,0.011719,-0.007812,-0.027344,17.451541,3.87,2.79,1.55
19946401000,0.999512,-0.016418,0.025513,0.009338,0.011719,0.027344,0.011719,17.478713,,,
19953369000,0.999512,-0.016418,0.025513,0.009338,-0.027344,-0.007812,0.011719,17.485681,,,
19983256000,0.999512,-0.016418,0.025513,0.009338,0.011719,-0.007812,-0.027344,17.515568,,,
20002494000,0.999512,-0.016418,0.025513,0.009338,-0.027344,-0.007812,-0.027344,17.534806,,,
20013333000,0.999512,-0.016418,0.025513,0.009338,0.011719,0.027344,0.011719,17.545645,,,
20044508000,0.999512,-0.016418,0.025513,0.009338,0.011719,-0.007812,-0.019531,17.57682,,,
20066097000,0.999512,-0.016418,0.025513,0.009338,0.011719,-0.007812,0.058594,17.598409,,,
20082197000,0.999512,-0.016418,0.025513,0.009338,-0.027344,-0.007812,-0.019531,17.614509,,,
20106027000,0.999512,-0.016418,0.025513,0.009338,0.011719,-0.007812,-0.058594,17.638339,,,
20121992000,0.999512,-0.016418,0.025513,0.009338,0.011719,-0.007812,0.058594,17.654304,3.9,2.81,1.58
20141958000,0.999512,-0.016418,0.025513,0.009338,0.011719,-0.046875,-0.058594,17.67427,,,
20162227000,0.999512,-0.016418,0.025513,0.009338,-0.027344,-0.007812,-0.019531,17.694539,,,
20185413000,0.999512,-0.016418,0.025513,0.009338,0.019531,-0.085938,0.058594,17.717725,,,
20202753000,0.999512,-0.016418,0.025513,0.009338,0.019531,-0.007812,0.019531,17.735065,,,
20221504000,0.999512,-0.016418,0.025513,0.009338,0.019531,-0.007812,0.058594,17.753816,,,
20241974000,0.999512,-0.016418,0.025513,0.009338,0.019531,-0.007812,-0.019531,17.774286,,,
20261815000,0.999512,-0.016418,0.025513,0.009338,0.019531,-0.007812,-0.019531,17.794127,,,
20281796000,0.999512,-0.016418,0.025513,0.009338,0.011719,-0.007812,-0.019531,17.814108,,,
20301152000,0.999512,-0.016418,0.025513,0.009338,0.011719,-0.007812,0.019531,17.833464,,,
20328189000,0.999512,-0.016418,0.025513,0.009338,0.011719,0.027344,0.019531,17.860501,3.89,2.8,1.55
20341849000,0.999512,-0.016479,0.025513,0.009521,0.316406,-0.125,0.019531,17.874161,,,
20361922000,0.999451,-0.016724,0.025635,0.010315,1.59375,-0.339844,0.164062,17.894234,,,
20382170000,0.999451,-0.017029,0.025879,0.011169,2.054688,-0.140625,-0.066406,17.914482,,,
20406500000,0.999451,-0.017151,0.025757,0.011475,2.007812,0.222656,-0.027344,17.938812,,,
20421555000,0.999451,-0.017029,0.025146,0.011475,1.808594,0.222656,0.09375,17.953867,,,
20441424000,0.999512,-0.017578,0.023865,0.012146,1.355469,-0.160156,-0.640625,17.973736,,,
20461307000,0.999512,-0.016907,0.023987,0.012268,0.144531,3.484375,0.203125,17.993619,,,
20484983000,0.999512,-0.016541,0.024048,0.012451,0.675781,-1.226562,-0.640625,18.017295,,,
20501526000,0.999512,-0.016968,0.023743,0.01239,-0.46875,-0.046875,-0.144531,18.033838,,,
20521105000,0.999512,-0.017029,0.023621,0.012329,-0.484375,-0.160156,-0.136719,18.053417,3.84,2.8,1.59
20541391000,0.999512,-0.016846,0.023621,0.011963,-0.835938,-0.117188,0.515625,18.073703,,,
20567765000,0.999512,-0.016846,0.023376,0.010803,-1.027344,0.421875,-0.144531,18.100077,,,
20581537000,0.999512,-0.016846,0.023254,0.009827,-1.082031,-0.574219,0.316406,18.113849,,,
20601073000,0.999512,-0.016846,0.023193,0.009827,-1.082031,0.382812,-0.105469,18.133385,,,
20621700000,0.999512,-0.016968,0.023071,0.009827,-0.667969,0.0,-0.144531,18.154012,,,
20645925000,0.999512,-0.016968,0.022949,0.010193,-0.628906,0.191406,-0.179688,18.178237,,,
20660656000,0.999512,-0.016907,0.02301,0.010254,-0.707031,-0.144531,0.011719,18.192968,,,
20680746000,0.999573,-0.016785,0.02301,0.010254,-0.484375,-0.03125,-0.296875,18.213058,,,
20700729000,0.999573,-0.016724,0.02301,0.010254,-0.523438,0.0,-0.488281,18.233041,,,
20723666000,0.999512,-0.016846,0.022949,0.010254,-0.675781,0.0,-0.144531,18.255978,3.82,2.79,1.56
20740540000,0.999512,-0.016785,0.022949,0.010315,-0.636719,-0.117188,0.242188,18.272852,,,
20761428000,0.999512,-0.016907,0.022949,0.010254,-0.332031,0.0,-0.066406,18.29374,,,
20788148000,0.999512,-0.017212,0.022766,0.010254,-0.367188,0.121094,-0.21875,18.32046,,,
20800339000,0.999512,-0.017151,0.022766,0.010254,-0.523438,0.082031,-0.144531,18.332651,,,
20820196000,0.999573,-0.017029,0.022827,0.010193,-0.445312,-0.03125,0.050781,18.352508,,,
20841727000,0.999512,-0.017029,0.022827,0.010254,-0.40625,0.046875,-0.027344,18.374039,,,
20868051000,0.999512,-0.017029,0.022827,0.010254,-0.101562,0.046875,0.011719,18.400363,,,
20880423000,0.999512,-0.01709,0.022888,0.010254,-0.101562,0.046875,-0.066406,18.412735,,,
20900047000,0.999512,-0.01709,0.022827,0.010254,-0.101562,0.007812,-0.027344,18.432359,,,
20920101000,0.999512,-0.017151,0.022827,0.010193,-0.101562,0.007812,0.011719,18.452413,3.85,2.8,1.59
20940090000,0.999512,-0.01709,0.022888,0.010193,-0.101562,0.046875,0.011719,18.472402,,,
20960330000,0.999512,-0.017029,0.022949,0.010193,-0.101562,0.046875,-0.066406,18.492642,,,
20987804000,0.999573,-0.01709,0.022766,0.010132,-0.0625,0.082031,-0.105469,18.520116,,,
20999819000,0.999512,-0.017395,0.022644,0.010132,-0.292969,0.429688,-0.679688,18.532131,,,
21021315000,0.999573,-0.017334,0.022644,0.010132,-0.214844,0.160156,-0.144531,18.553627,,,
21039689000,0.999512,-0.017334,0.022644,0.010132,-0.0625,-0.070312,0.242188,18.572001,,,
21059338000,0.999573,-0.017273,0.022644,0.010132,-0.101562,0.046875,-0.027344,18.59165,,,
21079278000,0.999573,-0.017334,0.022644,0.010071,-0.101562,0.007812,0.011719,18.61159,,,
21100483000,0.999573,-0.017334,0.022644,0.010132,-0.101562,0.007812,0.011719,18.632795,,,
21126079000,0.999573,-0.017273,0.022644,0.010132,-0.101562,0.007812,0.050781,18.658391,3.86,2.8,1.57
21139452000,0.999573,-0.017273,0.022644,0.010132,-0.101562,0.046875,-0.027344,18.671764,,,
21159416000,0.999573,-0.017273,0.022644,0.010132,-0.09375,0.007812,0.050781,18.691728,,,
21191987000,0.999573,-0.017273,0.022583,0.010132,-0.09375,0.046875,0.011719,18.724299,,,
21205469000,0.999573,-0.017273,0.022583,0.010132,-0.09375,0.046875,0.011719,18.737781,,,
21219163000,0.999573,-0.017273,0.022583,0.010132,-0.09375,0.007812,0.011719,18.751475,,,
21238915000,0.999573,-0.017334,0.022583,0.010132,-0.09375,0.007812,0.011719,18.771227,,,
21260576000,0.999573,-0.017334,0.022583,0.010132,-0.09375,0.046875,0.011719,18.792888,,,
21285183000,0.999573,-0.017334,0.022583,0.010132,-0.09375,0.007812,0.011719,18.817495,,,
21299377000,0.999573,-0.017334,0.022583,0.010132,-0.09375,0.046875,-0.027344,18.831689,,,
21319176000,0.999512,-0.017395,0.022583,0.010132,-0.09375,0.046875,0.011719,18.851488,3.83,2.8,1.57
21340311000,0.999573,-0.017334,0.022583,0.010132,-0.128906,0.046875,0.050781,18.872623,,,
21364673000,0.999573,-0.017395,0.022583,0.010132,0.03125,-0.023438,0.011719,18.896985,,,
21379272000,0.999573,-0.017334,0.022583,0.010132,0.03125,-0.023438,0.011719,18.911584,,,
21399868000,0.999573,-0.017395,0.022583,0.010132,-0.007812,-0.023438,0.011719,18.93218,,,
21418565000,0.999573,-0.017395,0.022583,0.010132,0.03125,-0.023438,-0.027344,18.950877,,,
21438691000,0.999573,-0.017395,0.022583,0.010132,-0.007812,0.015625,0.011719,18.971003,,,
21458861000,0.999573,-0.017334,0.022583,0.010132,-0.042969,0.015625,-0.027344,18.991173,,,
21481751000,0.999573,-0.017273,0.022583,0.010071,-0.007812,-0.023438,-0.027344,19.014063,,,
21498147000,0.999573,-0.017273,0.022644,0.010071,0.0,0.015625,0.019531,19.030459,,,
21518612000,0.999573,-0.017273,0.022644,0.010071,0.0,0.015625,0.011719,19.050924,3.83,2.8,1.55
21538761000,0.999573,-0.017273,0.022644,0.010071,0.0,-0.023438,0.019531,19.071073,,,
21558403000,0.999573,-0.017273,0.022644,0.010071,0.0,-0.023438,0.019531,19.090715,,,
21578442000,0.999573,-0.017273,0.022583,0.010071,0.0,-0.023438,-0.027344,19.110754,,,
21605495000,0.999573,-0.017212,0.022583,0.010071,0.03125,-0.023438,0.011719,19.137807,,,
21618290000,0.999573,-0.017212,0.022644,0.010071,-0.007812,-0.023438,0.011719,19.150602,,,
21638185000,0.999573,-0.017212,0.022644,0.010071,0.0,-0.015625,0.050781,19.170497,,,
21657867000,0.999573,-0.017212,0.022644,0.010071,0.0,0.023438,0.011719,19.190179,,,
21677852000,0.999573,-0.017273,0.022583,0.010071,0.0,0.023438,0.011719,19.210164,,,
21701944000,0.999573,-0.017273,0.022583,0.010071,-0.007812,0.015625,0.011719,19.234256,,,
21724100000,0.999573,-0.017212,0.022583,0.010071,-0.007812,0.015625,-0.027344,19.256412,3.83,2.76,1.59
21737934000,0.999573,-0.017273,0.022583,0.010071,-0.007812,0.015625,0.011719,19.270246,,,
21758163000,0.999573,-0.017212,0.022583,0.010071,-0.007812,0.015625,0.011719,19.290475,,,
21778954000,0.999573,-0.017212,0.022583,0.010071,-0.007812,0.015625,0.011719,19.311266,,,
21804797000,0.999573,-0.017212,0.022583,0.010071,-0.007812,0.015625,0.011719,19.337109,,,
21824216000,0.999573,-0.017273,0.022583,0.010071,-0.042969,-0.023438,0.011719,19.356528,,,
21837773000,0.999573,-0.017212,0.022583,0.010071,-0.035156,-0.023438,0.003906,19.370085,,,
21857920000,0.999573,-0.017212,0.022583,0.01001,0.0,0.015625,0.003906,19.390232,,,
21887263000,0.999573,-0.017273,0.022583,0.01001,0.0,-0.023438,0.003906,19.419575,,,
21903327000,0.999573,-0.017273,0.022583,0.01001,0.0,-0.023438,0.003906,19.435639,,,
21917229000,0.999573,-0.017273,0.022583,0.01001,0.0,0.015625,0.003906,19.449541,3.84,2.78,1.57
21937296000,0.999573,-0.017273,0.022583,0.01001,0.0,0.015625,0.003906,19.469608,,,
21967614000,0.999573,-0.017334,0.022583,0.01001,0.0,0.015625,0.003906,19.499926,,,
21983890000,0.999573,-0.017273,0.022583,0.01001,0.0,-0.023438,-0.035156,19.516202,,,
21997033000,0.999573,-0.017273,0.022583,0.01001,0.0,-0.023438,0.003906,19.529345,,,
22016963000,0.999573,-0.017273,0.022583,0.010071,0.0,0.015625,0.003906,19.549275,,,
22038685000,0.999573,-0.017273,0.022583,0.010071,0.0,-0.023438,-0.035156,19.570997,,,
22066693000,0.999573,-0.017273,0.022644,0.010071,0.007812,-0.023438,0.011719,19.599005,,,
22076966000,0.999573,-0.017273,0.022644,0.010071,0.007812,0.015625,0.011719,19.609278,,,
22097031000,0.999573,-0.017273,0.022644,0.010071,0.007812,0.015625,-0.027344,19.629343,,,
22117472000,0.999573,-0.017212,0.022644,0.010071,0.007812,0.015625,-0.027344,19.649784,3.83,2.79,1.57
22146839000,0.999573,-0.017151,0.022644,0.010071,0.007812,0.015625,0.011719,19.679151,,,
22156965000,0.999573,-0.017151,0.022644,0.010132,0.007812,0.015625,0.011719,19.689277,,,
22177041000,0.999573,-0.017151,0.022644,0.010132,0.007812,0.007812,-0.027344,19.709353,,,
22197177000,0.999573,-0.017151,0.022644,0.010132,0.007812,-0.03125,0.011719,19.729489,,,
22227091000,0.999573,-0.017151,0.022583,0.010071,-0.007812,-0.03125,0.011719,19.759403,,,
22236621000,0.999573,-0.017151,0.022583,0.010071,-0.007812,-0.03125,0.050781,19.768933,,,
22256380000,0.999573,-0.017151,0.022583,0.010071,-0.007812,0.007812,0.050781,19.788692,,,
22277769000,0.999573,-0.01709,0.022583,0.010071,-0.007812,-0.03125,0.011719,19.810081,,,
22300922000,0.999573,-0.01709,0.022583,0.010071,-0.007812,-0.03125,-0.027344,19.833234,,,
22325154000,0.999573,-0.01709,0.022583,0.010071,0.007812,-0.023438,0.011719,19.857466,3.83,2.81,1.54
22336425000,0.999573,-0.01709,0.022583,0.010071,0.007812,0.015625,0.011719,19.868737,,,
22366094000,0.999573,-0.01709,0.022583,0.010071,0.046875,0.015625,0.011719,19.898406,,,
22376087000,0.999573,-0.01709,0.022583,0.010071,0.007812,0.015625,-0.027344,19.908399,,,
22396017000,0.999573,-0.01709,0.022583,0.010071,0.007812,-0.023438,-0.027344,19.928329,,,
22426140000,0.999573,-0.01709,0.022583,0.010071,0.007812,0.015625,0.011719,19.958452,,,
22435888000,0.999573,-0.01709,0.022583,0.010071,0.007812,-0.023438,0.050781,19.9682,,,
22465812000,0.999573,-0.01709,0.022583,0.010071,0.007812,0.015625,0.011719,19.998124,,,
22475812000,0.999573,-0.01709,0.022583,0.010071,0.007812,0.015625,-0.027344,20.008124,,,
22496177000,0.999573,-0.01709,0.022583,0.010071,0.007812,-0.023438,0.011719,20.028489,,,
22525812000,0.999573,-0.01709,0.022583,0.010071,0.007812,0.015625,0.011719,20.058124,3.86,2.75,1.54
22535923000,0.999573,-0.01709,0.022583,0.010071,0.007812,0.015625,0.011719,20.068235,,,
22565694000,0.999573,-0.01709,0.022583,0.010071,0.007812,-0.023438,0.011719,20.098006,,,
22575540000,0.999573,-0.01709,0.022583,0.010071,0.007812,0.015625,0.011719,20.107852,,,
22595541000,0.999573,-0.01709,0.022583,0.010071,0.007812,0.015625,0.011719,20.127853,,,
22616814000,0.999573,-0.01709,0.022583,0.010071,0.007812,0.015625,0.011719,20.149126,,,
22645185000,0.999573,-0.01709,0.022583,0.010071,0.007812,-0.023438,0.011719,20.177497,,,
22655564000,0.999573,-0.01709,0.022583,0.010071,0.007812,-0.023438,0.011719,20.187876,,,
22676012000,0.999573,-0.01709,0.022583,0.010071,0.007812,-0.023438,-0.027344,20.208324,,,
22695182000,0.999573,-0.01709,0.022583,0.010071,0.007812,0.015625,0.011719,20.227494,,,
22716471000,0.999573,-0.01709,0.022583,0.010071,0.007812,0.015625,-0.027344,20.248783,3.84,2.78,1.55
22735055000,0.999573,-0.01709,0.022583,0.010071,0.007812,-0.023438,-0.027344,20.267367,,,
22755660000,0.999573,-0.01709,0.022583,0.010071,0.007812,-0.023438,0.011719,20.287972,,,
22775479000,0.999573,-0.01709,0.022583,0.010071,0.007812,0.015625,-0.027344,20.307791,,,
22804472000,0.999573,-0.01709,0.022583,0.010071,0.007812,-0.023438,-0.027344,20.336784,,,
22814885000,0.999573,-0.01709,0.022583,0.010071,0.007812,-0.023438,0.019531,20.347197,,,
22835806000,0.999573,-0.01709,0.022583,0.010071,0.007812,-0.023438,0.019531,20.368118,,,
22855334000,0.999573,-0.01709,0.022583,0.010071,0.007812,-0.015625,0.019531,20.387646,,,
22876216000,0.999573,-0.01709,0.022583,0.010071,0.007812,-0.015625,-0.019531,20.408528,,,
22900711000,0.999573,-0.01709,0.022583,0.010071,0.007812,0.023438,0.019531,20.433023,,,
22914880000,0.999573,-0.01709,0.022583,0.010071,0.007812,0.023438,0.019531,20.447192,3.83,2.79,1.56
22935443000,0.999573,-0.01709,0.022583,0.010071,0.007812,0.023438,0.019531,20.467755,,,
22954625000,0.999573,-0.01709,0.022583,0.010071,0.046875,-0.015625,0.011719,20.486937,,,
22984059000,0.999573,-0.01709,0.022583,0.010071,0.007812,0.023438,0.011719,20.516371,,,
23000537000,0.999573,-0.01709,0.022583,0.010071,0.007812,0.023438,0.011719,20.532849,,,
23014792000,0.999573,-0.01709,0.022583,0.010071,0.007812,-0.015625,0.011719,20.547104,,,
23045941000,0.999573,-0.01709,0.022583,0.010071,0.007812,-0.015625,0.011719,20.578253,,,
23064215000,0.999573,-0.01709,0.022583,0.010071,0.007812,-0.015625,0.050781,20.596527,,,
23081007000,0.999573,-0.01709,0.022583,0.010071,0.007812,0.023438,0.011719,20.613319,,,
23094601000,0.999573,-0.01709,0.022583,0.010071,0.007812,-0.015625,0.011719,20.626913,,,
23123512000,0.999573,-0.01709,0.022583,0.010071,0.007812,0.023438,0.050781,20.655824,3.83,2.79,1.56
23137937000,0.999573,-0.01709,0.022583,0.010071,0.007812,0.023438,0.003906,20.670249,,,
23154695000,0.999573,-0.01709,0.022583,0.010071,0.007812,-0.015625,0.003906,20.687007,,,
23183959000,0.999573,-0.01709,0.022583,0.010071,0.046875,0.023438,-0.035156,20.716271,,,
23193570000,0.999573,-0.01709,0.022583,0.010071,0.007812,-0.015625,-0.035156,20.725882,,,
23214692000,0.999573,-0.01709,0.022583,0.010071,0.007812,0.023438,0.003906,20.747004,,,
23253305000,0.999573,-0.01709,0.022583,0.010071,0.007812,-0.023438,-0.027344,20.785617,,,
23263111000,0.999573,-0.01709,0.022583,0.010071,0.007812,0.015625,-0.027344,20.795423,,,
23274980000,0.999573,-0.01709,0.022583,0.010071,0.007812,-0.023438,0.011719,20.807292,,,
23303013000,0.999573,-0.01709,0.022583,0.010071,0.007812,0.015625,-0.027344,20.835325,,,
23313301000,0.999573,-0.01709,0.022583,0.010071,0.007812,-0.023438,0.011719,20.845613,3.82,2.77,1.59
23344026000,0.999573,-0.01709,0.022583,0.010071,0.007812,0.015625,0.011719,20.876338,,,
23353556000,0.999573,-0.01709,0.022583,0.010071,0.007812,-0.023438,0.011719,20.885868,,,
23374572000,0.999573,-0.01709,0.022583,0.010071,0.007812,0.015625,0.011719,20.906884,,,
23395390000,0.999573,-0.01709,0.022583,0.010071,0.007812,0.015625,0.011719,20.927702,,,
23421081000,0.999573,-0.01709,0.022583,0.010071,0.0,0.015625,-0.027344,20.953393,,,
23434117000,0.999573,-0.01709,0.022583,0.010071,0.0,-0.023438,0.011719,20.966429,,,
23454710000,0.999573,-0.01709,0.022583,0.010071,0.0,-0.023438,0.011719,20.987022,,,
23474629000,0.999573,-0.01709,0.022583,0.010071,0.0,-0.023438,0.011719,21.006941,,,
23503263000,0.999573,-0.01709,0.022583,0.010071,0.0,-0.015625,0.011719,21.035575,,,
23513322000,0.999573,-0.01709,0.022583,0.010071,0.0,-0.015625,0.011719,21.045634,3.85,2.77,1.56
23534689000,0.999573,-0.01709,0.022583,0.010071,0.007812,-0.015625,0.011719,21.067001,,,
23562521000,0.999573,-0.01709,0.022583,0.010071,0.007812,-0.015625,0.011719,21.094833,,,
23573411000,0.999573,-0.01709,0.022583,0.010071,0.007812,-0.015625,0.011719,21.105723,,,
23602410000,0.999573,-0.01709,0.022583,0.010071,0.007812,0.023438,0.011719,21.134722,,,
23622276000,0.999573,-0.01709,0.022583,0.010071,0.007812,0.023438,0.011719,21.154588,,,
23642698000,0.999573,-0.01709,0.022583,0.010071,0.007812,0.023438,-0.027344,21.17501,,,
23653614000,0.999573,-0.01709,0.022583,0.010071,0.046875,-0.015625,-0.027344,21.185926,,,
23682179000,0.999573,-0.01709,0.022583,0.010071,0.007812,-0.015625,0.011719,21.214491,,,
23702120000,0.999573,-0.01709,0.022583,0.010071,0.007812,0.023438,0.011719,21.234432,,,
23722775000,0.999573,-0.01709,0.022583,0.010071,0.007812,-0.015625,0.011719,21.255087,3.8,2.8,1.54
23733285000,0.999573,-0.01709,0.022583,0.010071,0.007812,-0.015625,0.011719,21.265597,,,
23762220000,0.999573,-0.01709,0.022583,0.010071,0.007812,0.023438,0.011719,21.294532,,,
23781642000,0.999573,-0.01709,0.022583,0.010071,0.007812,0.023438,0.011719,21.313954,,,
23808750000,0.999573,-0.01709,0.022583,0.010071,0.007812,-0.015625,0.011719,21.341062,,,
23822004000,0.999573,-0.01709,0.022583,0.010071,0.007812,0.023438,0.011719,21.354316,,,
23842391000,0.999573,-0.01709,0.022583,0.010071,0.007812,-0.015625,0.011719,21.374703,,,
23861807000,0.999573,-0.01709,0.022583,0.010071,0.007812,-0.015625,0.011719,21.394119,,,
23885526000,0.999573,-0.01709,0.022583,0.010071,0.007812,-0.015625,0.011719,21.417838,,,
23901266000,0.999573,-0.01709,0.022583,0.010071,0.007812,0.023438,0.011719,21.433578,,,
23914207000,0.999573,-0.01709,0.022583,0.010071,0.007812,-0.015625,-0.027344,21.446519,3.82,2.8,1.56
23941639000,0.999573,-0.01709,0.022583,0.010071,0.007812,-0.015625,0.011719,21.473951,,,
23966760000,0.999573,-0.01709,0.022583,0.010071,0.007812,0.015625,0.050781,21.499072,,,
23981045000,0.999573,-0.01709,0.022583,0.010071,0.007812,0.015625,0.011719,21.513357,,,
24001665000,0.999573,-0.01709,0.022583,0.010071,0.007812,-0.023438,0.011719,21.533977,,,
24021160000,0.999573,-0.01709,0.022583,0.010071,0.046875,-0.015625,0.011719,21.553472,,,
24047559000,0.999573,-0.01709,0.022583,0.010071,0.007812,0.023438,0.011719,21.579871,,,
24061511000,0.999573,-0.01709,0.022583,0.010071,0.007812,-0.015625,0.003906,21.593823,,,
24081284000,0.999573,-0.01709,0.022583,0.010071,0.0,0.023438,-0.035156,21.613596,,,
24101139000,0.999573,-0.01709,0.022583,0.010071,0.0,-0.015625,-0.027344,21.633451,,,
24123534000,0.999573,-0.01709,0.022583,0.010071,0.0,-0.015625,-0.027344,21.655846,3.83,2.78,1.59
24141197000,0.999573,-0.01709,0.022583,0.010071,0.0,0.023438,0.011719,21.673509,,,
24162112000,0.999573,-0.01709,0.022583,0.010071,0.0,-0.015625,0.011719,21.694424,,,
24180843000,0.999573,-0.01709,0.022583,0.010071,0.0,0.023438,0.011719,21.713155,,,
24201563000,0.999573,-0.01709,0.022583,0.010071,0.039062,-0.015625,0.011719,21.733875,,,
24226927000,0.999573,-0.01709,0.022583,0.010071,0.0,-0.015625,0.011719,21.759239,,,
24240740000,0.999573,-0.01709,0.022583,0.010071,0.0,-0.015625,0.011719,21.773052,,,
24262459000,0.999573,-0.01709,0.022583,0.010071,0.0,-0.015625,0.050781,21.794771,,,
24282039000,0.999573,-0.01709,0.022583,0.010071,0.0,-0.015625,0.011719,21.814351,,,
24307450000,0.999573,-0.01709,0.022583,0.010071,0.0,0.023438,0.011719,21.839762,,,
24320497000,0.999573,-0.01709,0.022583,0.010071,0.007812,0.023438,0.011719,21.852809,3.84,2.78,1.55
24340144000,0.999573,-0.01709,0.022583,0.010071,0.007812,-0.015625,0.011719,21.872456,,,
24365942000,0.999573,-0.01709,0.022583,0.010071,0.007812,-0.015625,0.011719,21.898254,,,
24380412000,0.999573,-0.01709,0.022583,0.010071,0.007812,-0.015625,0.011719,21.912724,,,
24400198000,0.999573,-0.01709,0.022583,0.010071,0.007812,-0.015625,0.011719,21.93251,,,
24425636000,0.999573,-0.01709,0.022583,0.010071,0.007812,-0.015625,-0.027344,21.957948,,,
24440701000,0.999573,-0.01709,0.022583,0.010071,0.007812,0.023438,0.011719,21.973013,,,
24460735000,0.999573,-0.01709,0.022583,0.010071,0.007812,0.023438,0.011719,21.993047,,,
24479931000,0.999573,-0.01709,0.022583,0.010071,0.007812,0.023438,0.011719,22.012243,,,
24500238000,0.999573,-0.01709,0.022583,0.010071,0.007812,-0.015625,0.011719,22.03255,,,
24525713000,0.999573,-0.01709,0.022583,0.010071,0.046875,-0.015625,0.011719,22.058025,3.84,2.79,1.53
24539987000,0.999573,-0.01709,0.022583,0.010071,0.007812,-0.015625,0.050781,22.072299,,,
24559719000,0.999573,-0.01709,0.022583,0.010071,0.007812,-0.015625,0.011719,22.092031,,,
24580489000,0.999573,-0.01709,0.022583,0.010071,0.007812,-0.015625,0.003906,22.112801,,,
24606726000,0.999573,-0.01709,0.022583,0.010071,0.007812,-0.015625,0.003906,22.139038,,,
24619499000,0.999573,-0.01709,0.022583,0.010071,0.007812,-0.015625,0.003906,22.151811,,,
24639368000,0.999573,-0.01709,0.022583,0.010071,0.007812,0.023438,0.003906,22.17168,,,
24669902000,0.999573,-0.01709,0.022583,0.010071,0.0,0.023438,-0.035156,22.202214,,,
24679781000,0.999573,-0.01709,0.022583,0.010071,0.0,-0.015625,0.003906,22.212093,,,
24699344000,0.999573,-0.01709,0.022583,0.010071,0.0,0.023438,0.003906,22.231656,,,
24729189000,0.999573,-0.01709,0.022583,0.010071,0.0,0.023438,0.042969,22.261501,3.85,2.77,1.55
24746630000,0.999573,-0.01709,0.022583,0.010071,0.0,-0.015625,0.042969,22.278942,,,
24759665000,0.999573,-0.01709,0.022583,0.010071,0.007812,-0.015625,0.003906,22.291977,,,
24789319000,0.999573,-0.01709,0.022583,0.010071,0.007812,-0.015625,0.003906,22.321631,,,
24798899000,0.999573,-0.01709,0.022583,0.010071,0.007812,0.023438,0.003906,22.331211,,,
24818997000,0.999573,-0.01709,0.022583,0.010071,0.007812,-0.015625,0.003906,22.351309,,,
24849445000,0.999573,-0.01709,0.022583,0.010071,0.007812,0.023438,0.003906,22.381757,,,
24858750000,0.999573,-0.01709,0.022583,0.010071,0.007812,-0.015625,0.003906,22.391062,,,
24878270000,0.999573,-0.01709,0.022583,0.010071,0.007812,-0.015625,0.003906,22.410582,,,
24898816000,0.999573,-0.01709,0.022583,0.010071,0.007812,-0.015625,0.003906,22.431128,,,
24929699000,0.999573,-0.01709,0.022583,0.010071,0.007812,-0.015625,0.003906,22.462011,3.82,2.82,1.58
24944330000,0.999573,-0.01709,0.022583,0.010071,0.007812,-0.015625,0.003906,22.476642,,,
24958414000,0.999573,-0.01709,0.022583,0.010071,-0.027344,0.023438,0.003906,22.490726,,,
24980825000,0.999573,-0.01709,0.022583,0.010071,0.0,-0.023438,0.003906,22.513137,,,
25008936000,0.999573,-0.01709,0.022583,0.010071,0.007812,-0.015625,0.003906,22.541248,,,
25025466000,0.999573,-0.01709,0.022583,0.010071,0.046875,-0.015625,0.003906,22.557778,,,
25038656000,0.999573,-0.01709,0.022583,0.010071,0.007812,0.023438,0.003906,22.570968,,,
25058282000,0.999573,-0.01709,0.022583,0.010071,0.007812,0.023438,0.003906,22.590594,,,
25087964000,0.999573,-0.01709,0.022583,0.010071,0.007812,-0.015625,0.011719,22.620276,,,
25103043000,0.999573,-0.01709,0.022583,0.010071,0.007812,-0.015625,0.011719,22.635355,,,
25118049000,0.999573,-0.01709,0.022583,0.010071,0.007812,-0.015625,0.011719,22.650361,3.83,2.76,1.57
25138815000,0.999573,-0.01709,0.022583,0.010071,0.007812,0.023438,0.011719,22.671127,,,
25158521000,0.999573,-0.01709,0.022583,0.010071,0.007812,0.023438,0.011719,22.690833,,,
25177856000,0.999573,-0.01709,0.022583,0.010071,0.007812,-0.023438,0.011719,22.710168,,,
25198075000,0.999573,-0.01709,0.022583,0.010071,0.046875,-0.023438,0.011719,22.730387,,,
25217743000,0.999573,-0.01709,0.022583,0.010071,0.007812,-0.015625,0.011719,22.750055,,,
25239139000,0.999573,-0.01709,0.022583,0.010071,0.007812,-0.015625,0.011719,22.771451,,,
25264299000,0.999573,-0.01709,0.022583,0.010071,0.007812,-0.015625,0.011719,22.796611,,,
25277630000,0.999573,-0.01709,0.022583,0.010071,0.007812,0.023438,0.011719,22.809942,,,
25298493000,0.999573,-0.01709,0.022583,0.010071,0.046875,-0.015625,0.011719,22.830805,,,
25321793000,0.999573,-0.01709,0.022583,0.010071,0.007812,0.023438,0.011719,22.854105,3.8,2.76,1.58
25343881000,0.999573,-0.01709,0.022583,0.010071,0.007812,0.023438,0.011719,22.876193,,,
25357894000,0.999573,-0.01709,0.022583,0.010071,0.007812,-0.015625,0.011719,22.890206,,,
25377562000,0.999573,-0.01709,0.022583,0.010071,0.007812,0.023438,0.011719,22.909874,,,
25407421000,0.999573,-0.01709,0.022583,0.010071,0.007812,-0.023438,0.050781,22.939733,,,
25424091000,0.999573,-0.01709,0.022583,0.010071,0.007812,-0.023438,0.050781,22.956403,,,
25444472000,0.999573,-0.01709,0.022583,0.010071,0.007812,-0.015625,0.011719,22.976784,,,
25457860000,0.999573,-0.01709,0.022583,0.010071,0.007812,0.023438,0.011719,22.990172,,,
25477024000,0.999573,-0.01709,0.022583,0.010071,0.046875,0.023438,0.011719,23.009336,,,
25498782000,0.999573,-0.01709,0.022583,0.010071,0.046875,0.023438,0.011719,23.031094,,,
25524197000,0.999573,-0.01709,0.022583,0.010071,0.0,-0.015625,0.011719,23.056509,3.85,2.8,1.54
25536868000,0.999573,-0.01709,0.022583,0.010071,0.0,0.023438,0.011719,23.06918,,,
25557252000,0.999573,-0.01709,0.022583,0.010071,0.0,0.023438,0.011719,23.089564,,,
25587309000,0.999573,-0.01709,0.022583,0.010071,-0.035156,-0.015625,0.011719,23.119621,,,
25597102000,0.999573,-0.01709,0.022583,0.010071,0.0,-0.015625,0.003906,23.129414,,,
25616901000,0.999573,-0.01709,0.022583,0.010071,0.039062,-0.015625,0.042969,23.149213,,,
25636784000,0.999573,-0.01709,0.022583,0.010071,0.0,0.023438,0.003906,23.169096,,,
25666511000,0.999573,-0.01709,0.022583,0.010071,0.0,-0.015625,0.003906,23.198823,,,
25676693000,0.999573,-0.01709,0.022583,0.010071,0.0,-0.015625,0.042969,23.209005,,,
25710361000,0.999573,-0.01709,0.022583,0.010071,0.0,0.023438,-0.035156,23.242673,,,
25716681000,0.999573,-0.01709,0.022583,0.010071,0.0,-0.015625,0.003906,23.248993,3.85,2.79,1.55
25746484000,0.999573,-0.01709,0.022583,0.010071,0.0,0.023438,0.003906,23.278796,,,
25763505000,0.999573,-0.01709,0.022583,0.010071,0.0,-0.015625,0.003906,23.295817,,,
25776092000,0.999573,-0.017151,0.022583,0.010132,0.921875,0.023438,-0.074219,23.308404,,,
25798379000,0.999573,-0.017151,0.022583,0.010315,1.171875,0.03125,0.078125,23.330691,,,
25827065000,0.999512,-0.016907,0.02301,0.011902,1.738281,-0.9375,-0.113281,23.359377,,,
25836479000,0.999512,-0.017395,0.022827,0.011963,0.4375,4.886719,0.386719,23.368791,,,
25856977000,0.999512,-0.016907,0.023071,0.011963,0.933594,1.140625,0.117188,23.389289,,,
25886390000,0.999512,-0.017029,0.02301,0.011963,0.773438,0.03125,-0.152344,23.418702,,,
25895719000,0.999512,-0.01709,0.022949,0.011902,0.316406,0.175781,-0.1875,23.428031,,,
25915967000,0.999512,-0.01709,0.02301,0.011902,0.421875,-0.015625,0.308594,23.448279,3.81,2.84,1.6
25938875000,0.999512,-0.017151,0.02301,0.011841,-0.152344,0.097656,0.117188,23.471187,,,
25956003000,0.999512,-0.017273,0.022949,0.01178,0.101562,-0.085938,-0.304688,23.488315,,,
25976319000,0.999512,-0.017334,0.022888,0.011719,-0.054688,-0.085938,-0.1875,23.508631,,,
25996270000,0.999512,-0.017578,0.022827,0.01178,-0.023438,-0.046875,-0.226562,23.528582,,,
26016171000,0.999512,-0.016907,0.023071,0.011658,-0.175781,-0.191406,0.808594,23.548483,,,
26045561000,0.999512,-0.01709,0.02301,0.011536,-0.796875,0.039062,0.15625,23.577873,,,
26055906000,0.999512,-0.017151,0.022949,0.011414,-0.835938,0.222656,-0.265625,23.588218,,,
26076154000,0.999512,-0.017273,0.022827,0.010864,-0.71875,0.257812,-0.035156,23.608466,,,
26096242000,0.999573,-0.017212,0.022705,0.009583,-0.84375,0.304688,0.042969,23.628554,,,
26125642000,0.999573,-0.017334,0.022644,0.009583,-0.34375,0.648438,-0.304688,23.657954,3.8,2.85,1.6
26145231000,0.999573,-0.017517,0.022583,0.009644,-0.421875,-0.007812,-0.457031,23.677543,,,
26155406000,0.999573,-0.017517,0.022583,0.009705,-0.535156,0.105469,-0.417969,23.687718,,,
26175537000,0.999573,-0.017517,0.022583,0.009766,-0.574219,-0.085938,-0.417969,23.707849,,,
26195546000,0.999573,-0.017639,0.022522,0.009705,-0.535156,0.066406,-0.152344,23.727858,,,
26225480000,0.999573,-0.017639,0.022522,0.009583,-0.308594,-0.046875,-0.035156,23.757792,,,
26246145000,0.999573,-0.017456,0.022583,0.009705,-0.269531,-0.125,0.003906,23.778457,,,
26255439000,0.999573,-0.017395,0.022583,0.009705,-0.460938,0.105469,0.003906,23.787751,,,
26275731000,0.999573,-0.017395,0.022583,0.009766,-0.308594,0.066406,-0.035156,23.808043,,,
26295154000,0.999573,-0.017334,0.022583,0.009766,-0.5,-0.007812,0.078125,23.827466,,,
26325271000,0.999573,-0.017395,0.022583,0.009766,-0.230469,-0.007812,0.003906,23.857583,3.81,2.85,1.6
26341324000,0.999573,-0.017334,0.022583,0.009705,-0.113281,-0.007812,0.078125,23.873636,,,
26355340000,0.999573,-0.017334,0.022583,0.009766,0.039062,-0.007812,0.003906,23.887652,,,
26375517000,0.999573,-0.017334,0.022583,0.009766,0.039062,-0.007812,0.042969,23.907829,,,
26395615000,0.999573,-0.017395,0.022583,0.009766,0.0,-0.007812,0.042969,23.927927,,,
26424924000,0.999573,-0.017456,0.022583,0.009766,-0.039062,0.03125,0.003906,23.957236,,,
26434968000,0.999573,-0.017456,0.022583,0.009766,-0.078125,-0.046875,0.042969,23.96728,,,
26455313000,0.999573,-0.017578,0.022522,0.009766,0.039062,-0.046875,-0.035156,23.987625,,,
26475360000,0.999573,-0.017639,0.022522,0.009705,-0.269531,0.03125,-0.035156,24.007672,,,
26504772000,0.999573,-0.017578,0.022522,0.009644,-0.460938,0.03125,-0.074219,24.037084,,,
26523442000,0.999573,-0.017578,0.022522,0.009644,-0.382812,-0.007812,0.003906,24.055754,3.79,2.85,1.61
26534054000,0.999573,-0.017639,0.022522,0.009583,-0.152344,0.03125,-0.074219,24.066366,,,
26554596000,0.999573,-0.017639,0.022461,0.009644,-0.046875,-0.046875,0.042969,24.086908,,,
26585173000,0.999573,-0.017639,0.022461,0.009583,-0.078125,0.03125,-0.035156,24.117485,,,
26594175000,0.999573,-0.017639,0.022461,0.009583,-0.078125,-0.007812,-0.035156,24.126487,,,
26615061000,0.999573,-0.017578,0.022522,0.009583,-0.039062,-0.007812,0.003906,24.147373,,,
26635141000,0.999573,-0.017578,0.022522,0.009583,-0.105469,-0.007812,0.003906,24.167453,,,
26664025000,0.999573,-0.017639,0.022522,0.009583,-0.03125,-0.085938,0.164062,24.196337,,,
26674054000,0.999573,-0.017639,0.022522,0.009583,-0.070312,-0.007812,0.011719,24.206366,,,
26694814000,0.999573,-0.0177,0.022461,0.009583,-0.078125,-0.007812,0.011719,24.227126,,,
26724318000,0.999573,-0.0177,0.022461,0.009583,-0.078125,0.03125,0.011719,24.25663,3.8,2.85,1.63
26739945000,0.999573,-0.0177,0.022461,0.009583,-0.078125,0.03125,-0.027344,24.272257,,,
26754815000,0.999573,-0.0177,0.022522,0.009583,-0.039062,-0.007812,0.050781,24.287127,,,
26774701000,0.999573,-0.0177,0.022522,0.009583,-0.078125,0.03125,0.011719,24.307013,,,
26804269000,0.999573,-0.017639,0.022583,0.009583,-0.0625,-0.007812,0.011719,24.336581,,,
26813759000,0.999573,-0.017639,0.022583,0.009583,-0.023438,-0.007812,0.011719,24.346071,,,
26834722000,0.999573,-0.017639,0.022583,0.009583,0.09375,-0.054688,0.011719,24.367034,,,
26863764000,0.999573,-0.0177,0.022522,0.009583,0.054688,-0.015625,-0.027344,24.396076,,,
26880507000,0.999573,-0.0177,0.022522,0.009583,0.085938,-0.015625,0.011719,24.412819,,,
26894608000,0.999573,-0.017639,0.022583,0.009583,0.046875,-0.054688,0.050781,24.42692,,,
26914480000,0.999573,-0.0177,0.022583,0.009583,0.046875,-0.015625,0.011719,24.446792,3.79,2.84,1.63
26943623000,0.999573,-0.0177,0.022583,0.009583,0.039062,-0.015625,0.011719,24.475935,,,
26953553000,0.999573,-0.017639,0.022583,0.009583,0.039062,-0.015625,-0.027344,24.485865,,,
26974780000,0.999573,-0.017639,0.022583,0.009583,0.078125,-0.015625,0.011719,24.507092,,,
27003147000,0.999573,-0.017639,0.022583,0.009583,0.070312,-0.007812,0.011719,24.535459,,,
27013299000,0.999573,-0.017639,0.022583,0.009583,0.03125,-0.007812,0.011719,24.545611,,,
27034705000,0.999573,-0.0177,0.022583,0.009583,0.0625,-0.007812,0.011719,24.567017,,,
27054726000,0.999512,-0.017639,0.022644,0.009583,0.023438,-0.007812,0.011719,24.587038,,,
27082962000,0.999512,-0.0177,0.022644,0.009583,0.015625,-0.007812,0.011719,24.615274,,,
27093176000,0.999512,-0.0177,0.022644,0.009583,0.015625,-0.007812,0.011719,24.625488,,,
27114408000,0.999512,-0.0177,0.022644,0.009644,0.054688,-0.007812,0.011719,24.64672,3.78,2.9,1.62
27143276000,0.999512,-0.0177,0.022644,0.009644,0.007812,0.03125,0.011719,24.675588,,,
27153306000,0.999512,-0.0177,0.022583,0.009583,0.007812,-0.007812,0.011719,24.685618,,,
27175001000,0.999512,-0.0177,0.022583,0.009583,0.007812,-0.007812,-0.027344,24.707313,,,
27194310000,0.999512,-0.017761,0.022583,0.009583,0.007812,-0.007812,0.050781,24.726622,,,
27223199000,0.999512,-0.017761,0.022583,0.009583,0.007812,-0.007812,0.003906,24.755511,,,
27242484000,0.999512,-0.017761,0.022583,0.009583,0.007812,-0.007812,0.003906,24.774796,,,
27253287000,0.999512,-0.017761,0.022583,0.009583,0.046875,-0.007812,0.003906,24.785599,,,
27288402000,0.999512,-0.017761,0.022583,0.009583,0.046875,-0.007812,0.003906,24.820714,,,
27302854000,0.999512,-0.017761,0.022583,0.009583,0.039062,-0.007812,0.042969,24.835166,,,
27322394000,0.999512,-0.017761,0.022583,0.009583,0.0,0.0,-0.035156,24.854706,3.75,2.83,1.61
27342202000,0.999512,-0.017761,0.022583,0.009583,0.039062,0.0,-0.035156,24.874514,,,
27363161000,0.999512,-0.017761,0.022644,0.009521,0.0,0.0,0.003906,24.895473,,,
27387180000,0.999512,-0.017761,0.022644,0.009521,0.0,0.0,0.003906,24.919492,,,
27402874000,0.999512,-0.017761,0.022644,0.009521,0.0,0.0,-0.035156,24.935186,,,
27422337000,0.999512,-0.017761,0.022644,0.009521,0.039062,0.0,-0.035156,24.954649,,,
27443607000,0.999512,-0.0177,0.022644,0.009521,0.0,0.0,0.003906,24.975919,,,
27461799000,0.999512,-0.0177,0.022644,0.009521,0.039062,0.0,-0.027344,24.994111,,,
27482904000,0.999512,-0.0177,0.022644,0.009521,-0.007812,0.0,0.011719,25.015216,,,
27502024000,0.999512,-0.0177,0.022705,0.009521,-0.007812,0.0,0.011719,25.034336,,,
27524204000,0.999512,-0.0177,0.022705,0.009521,-0.007812,0.0,0.011719,25.056516,3.81,2.87,1.64
27548214000,0.999512,-0.0177,0.022644,0.00946,-0.007812,0.0,0.011719,25.080526,,,
27561946000,0.999512,-0.0177,0.022644,0.009521,-0.007812,0.0,0.011719,25.094258,,,
27582225000,0.999512,-0.017761,0.022644,0.009521,0.03125,0.0,0.011719,25.114537,,,
27602345000,0.999512,-0.017761,0.022644,0.009521,-0.007812,0.0,0.011719,25.134657,,,
27629068000,0.999512,-0.017761,0.022644,0.009521,-0.007812,0.0,0.011719,25.16138,,,
27642706000,0.999512,-0.017761,0.022644,0.009521,-0.007812,0.0,0.011719,25.175018,,,
27661346000,0.999512,-0.017761,0.022644,0.009521,-0.007812,0.0,0.011719,25.193658,,,
27681703000,0.999512,-0.0177,0.022644,0.009521,0.03125,0.0,0.003906,25.214015,,,
27702127000,0.999512,-0.0177,0.022644,0.009521,0.03125,0.0,0.003906,25.234439,,,
27721259000,0.999512,-0.0177,0.022644,0.009521,-0.007812,0.0,0.003906,25.253571,3.81,2.86,1.61
27744050000,0.999512,-0.0177,0.022644,0.009521,-0.007812,0.0,0.003906,25.276362,,,
27763325000,0.999512,-0.0177,0.022644,0.009521,-0.007812,0.0,0.003906,25.295637,,,
27788954000,0.999512,-0.0177,0.022644,0.009521,-0.007812,0.0,0.003906,25.321266,,,
27801361000,0.999512,-0.0177,0.022644,0.009521,-0.007812,0.0,0.003906,25.333673,,,
27821399000,0.999512,-0.0177,0.022644,0.009521,-0.007812,0.039062,-0.035156,25.353711,,,
27851483000,0.999512,-0.0177,0.022644,0.009521,0.03125,0.0,0.042969,25.383795,,,
27867909000,0.999512,-0.0177,0.022644,0.009521,-0.007812,-0.039062,0.003906,25.400221,,,
27880725000,0.999512,-0.0177,0.022644,0.009521,-0.007812,0.0,0.003906,25.413037,,,
27901210000,0.999512,-0.0177,0.022644,0.009521,-0.007812,0.0,0.003906,25.433522,,,
27924672000,0.999512,-0.0177,0.022705,0.009583,-0.007812,0.0,0.003906,25.456984,3.77,2.89,1.66
27940993000,0.999512,-0.0177,0.022705,0.009583,-0.007812,0.0,-0.035156,25.473305,,,
27961187000,0.999512,-0.0177,0.022705,0.009583,-0.007812,0.0,-0.035156,25.493499,,,
27981591000,0.999512,-0.0177,0.022705,0.009583,-0.007812,0.0,0.003906,25.513903,,,
28007399000,0.999512,-0.0177,0.022705,0.009583,-0.007812,0.0,-0.035156,25.539711,,,
28020844000,0.999512,-0.017761,0.022705,0.009521,-0.007812,0.0,0.011719,25.553156,,,
28040884000,0.999512,-0.0177,0.022766,0.009521,-0.007812,0.0,0.011719,25.573196,,,
28061370000,0.999512,-0.0177,0.022766,0.009521,-0.007812,0.0,0.011719,25.593682,,,
28086693000,0.999512,-0.0177,0.022766,0.009521,-0.007812,0.0,0.011719,25.619005,,,
28100887000,0.999512,-0.0177,0.022766,0.009521,0.03125,0.0,0.011719,25.633199,,,
28120442000,0.999512,-0.0177,0.022766,0.009521,0.03125,0.0,-0.027344,25.652754,3.78,2.85,1.64
28140249000,0.999512,-0.0177,0.022766,0.009521,-0.007812,0.0,0.011719,25.672561,,,
28170252000,0.999512,-0.0177,0.022766,0.00946,-0.007812,0.0,-0.027344,25.702564,,,
28179723000,0.999512,-0.017761,0.022766,0.00946,0.03125,0.0,0.011719,25.712035,,,
28200478000,0.999512,-0.017761,0.022766,0.00946,-0.007812,0.0,0.011719,25.73279,,,
28220186000,0.999512,-0.017761,0.022766,0.00946,-0.007812,0.0,0.011719,25.752498,,,
28245920000,0.999512,-0.017761,0.022766,0.00946,-0.007812,0.0,0.011719,25.778232,,,
28259750000,0.999512,-0.017761,0.022766,0.00946,0.03125,0.0,-0.027344,25.792062,,,
28279731000,0.999512,-0.017761,0.022766,0.00946,0.03125,0.0,-0.027344,25.812043,,,
28300131000,0.999512,-0.0177,0.022766,0.00946,-0.007812,0.0,-0.027344,25.832443,,,
28319495000,0.999512,-0.0177,0.022766,0.00946,-0.007812,0.0,0.011719,25.851807,3.77,2.9,1.63
28339685000,0.999512,-0.0177,0.022766,0.00946,-0.007812,0.0,0.011719,25.871997,,,
28359707000,0.999512,-0.0177,0.022766,0.00946,-0.007812,0.0,0.011719,25.892019,,,
28389566000,0.999512,-0.017639,0.022766,0.00946,-0.007812,0.0,0.011719,25.921878,,,
28405780000,0.999512,-0.017639,0.022766,0.00946,-0.007812,0.0,0.011719,25.938092,,,
28419526000,0.999512,-0.0177,0.022766,0.00946,-0.007812,0.0,-0.027344,25.951838,,,
28439450000,0.999512,-0.0177,0.022766,0.00946,-0.007812,0.0,-0.027344,25.971762,,,
28468713000,0.999512,-0.0177,0.022766,0.009399,0.03125,0.0,0.011719,26.001025,,,
28486850000,0.999512,-0.0177,0.022766,0.009399,-0.007812,0.0,0.011719,26.019162,,,
28499347000,0.999512,-0.0177,0.022827,0.009399,0.03125,0.0,-0.027344,26.031659,,,
28519246000,0.999512,-0.0177,0.022827,0.009399,-0.007812,0.0,0.011719,26.051558,3.8,2.86,1.61
28548843000,0.999512,-0.0177,0.022827,0.009338,-0.007812,0.0,-0.027344,26.081155,,,
28559387000,0.999512,-0.0177,0.022827,0.009338,0.03125,0.0,0.011719,26.091699,,,
28578593000,0.999512,-0.017639,0.022827,0.009338,0.03125,0.0,0.011719,26.110905,,,
28599426000,0.999512,-0.017639,0.022827,0.009338,-0.007812,0.0,0.011719,26.131738,,,
28618433000,0.999512,-0.017639,0.022827,0.009338,0.03125,0.039062,0.011719,26.150745,,,
28638870000,0.999512,-0.017639,0.022827,0.009338,-0.007812,0.0,0.011719,26.171182,,,
28668654000,0.999512,-0.017639,0.022827,0.009338,-0.007812,0.0,0.011719,26.200966,,,
28685670000,0.999512,-0.017639,0.022827,0.009338,-0.007812,0.0,0.011719,26.217982,,,
28698210000,0.999512,-0.017639,0.022827,0.009338,-0.007812,0.0,0.003906,26.230522,,,
28720734000,0.999512,-0.017639,0.022827,0.009338,0.03125,0.0,0.003906,26.253046,3.8,2.86,1.62
28739020000,0.999512,-0.017639,0.022827,0.009338,-0.007812,0.0,-0.035156,26.271332,,,
28768160000,0.999512,-0.017639,0.022827,0.009338,-0.007812,0.0,0.003906,26.300472,,,
28777935000,0.999512,-0.017639,0.022827,0.009338,-0.007812,0.0,0.003906,26.310247,,,
28798234000,0.999512,-0.017639,0.022827,0.009338,0.03125,0.0,0.003906,26.330546,,,
28828392000,0.999512,-0.017639,0.022827,0.009338,-0.007812,0.0,0.003906,26.360704,,,
28845280000,0.999512,-0.017639,0.022827,0.009338,-0.007812,0.0,-0.035156,26.377592,,,
28858454000,0.999512,-0.017639,0.022827,0.009338,-0.007812,0.0,-0.035156,26.390766,,,
28877849000,0.999512,-0.017639,0.022827,0.009338,0.03125,0.0,-0.035156,26.410161,,,
28900942000,0.999512,-0.017639,0.022827,0.009338,-0.007812,-0.039062,0.003906,26.433254,,,
28917546000,0.999512,-0.017639,0.022827,0.009338,-0.007812,0.0,0.011719,26.449858,3.77,2.86,1.6
28937704000,0.999512,-0.017639,0.022827,0.009338,-0.007812,0.0,0.011719,26.470016,,,
28957722000,0.999512,-0.017639,0.022827,0.009338,0.03125,0.0,-0.027344,26.490034,,,
28987590000,0.999512,-0.017639,0.022827,0.009338,-0.007812,-0.039062,0.011719,26.519902,,,
28997406000,0.999512,-0.017639,0.022827,0.009338,-0.007812,0.0,0.050781,26.529718,,,
29018310000,0.999512,-0.017639,0.022827,0.009338,-0.007812,0.0,0.003906,26.550622,,,
29037362000,0.999512,-0.017639,0.022827,0.009338,-0.007812,0.0,0.003906,26.569674,,,
29068074000,0.999512,-0.017639,0.022827,0.009338,-0.007812,0.0,0.003906,26.600386,,,
29076653000,0.999512,-0.017639,0.022827,0.009338,0.03125,0.0,0.003906,26.608965,,,
29098129000,0.999512,-0.017639,0.022827,0.009338,-0.007812,0.007812,0.003906,26.630441,,,
29117171000,0.999512,-0.017639,0.022827,0.009338,-0.007812,0.007812,0.042969,26.649483,3.78,2.87,1.64
29147057000,0.999512,-0.017639,0.022827,0.009338,-0.007812,0.0,0.042969,26.679369,,,
29157496000,0.999512,-0.017639,0.022827,0.009338,-0.007812,0.0,0.003906,26.689808,,,
29180161000,0.999512,-0.017639,0.022827,0.009338,-0.007812,0.0,0.003906,26.712473,,,
29197306000,0.999512,-0.017639,0.022827,0.009338,-0.007812,0.0,0.003906,26.729618,,,
29226539000,0.999512,-0.017639,0.022827,0.009338,0.03125,0.0,0.003906,26.758851,,,
29245616000,0.999512,-0.017639,0.022827,0.009338,-0.007812,0.0,0.042969,26.777928,,,
