timestamp_ns,qw,qx,qy,qz,ax,ay,az
2662944000,0.999817,-0.015564,0.013550,-0.000244,0.003906,0.000000,-0.035156
2672345000,0.999817,-0.015564,0.013611,-0.000244,-0.031250,0.000000,0.003906
2683387000,0.999817,-0.015564,0.013611,-0.000244,-0.031250,0.000000,-0.035156
2692140000,0.999817,-0.015503,0.013611,-0.000244,-0.031250,0.000000,0.003906
2702473000,0.999817,-0.015503,0.013611,-0.000244,0.003906,0.000000,-0.035156
2712954000,0.999817,-0.015503,0.013611,-0.000183,0.003906,0.000000,0.003906
2722672000,0.999817,-0.015564,0.013611,-0.000183,0.003906,0.000000,0.003906
2732698000,0.999817,-0.015564,0.013611,-0.000183,-0.031250,0.000000,0.003906
2742630000,0.999817,-0.015564,0.013611,-0.000244,-0.031250,0.000000,0.003906
2752372000,0.999817,-0.015503,0.013611,-0.000244,0.003906,0.000000,0.011719
2762295000,0.999817,-0.015503,0.013611,-0.000244,0.003906,0.000000,0.011719
2771987000,0.999817,-0.015503,0.013611,-0.000244,-0.031250,0.000000,0.011719
2792562000,0.999817,-0.015503,0.013611,-0.000244,-0.023438,0.000000,0.011719
2812438000,0.999817,-0.015503,0.013611,-0.000244,-0.023438,0.000000,0.011719
2832393000,0.999817,-0.015442,0.013611,-0.000244,-0.023438,0.000000,-0.027344
2852705000,0.999817,-0.015503,0.013611,-0.000244,-0.015625,0.000000,-0.027344
2872073000,0.999817,-0.015442,0.013611,-0.000244,-0.015625,0.000000,0.011719
2902704000,0.999817,-0.015442,0.013611,-0.000244,0.019531,0.000000,0.011719
2911914000,0.999817,-0.015442,0.013611,-0.000244,-0.015625,0.000000,0.011719
2932048000,0.999817,-0.015442,0.013672,-0.000244,0.019531,0.000000,0.011719
2951602000,0.999817,-0.015442,0.013611,-0.000244,0.019531,0.035156,-0.027344
2971986000,0.999817,-0.015503,0.013611,-0.000244,-0.015625,0.000000,0.011719
2992055000,0.999817,-0.015503,0.013672,-0.000244,-0.015625,0.000000,0.011719
3018111000,0.999817,-0.015503,0.013611,-0.000244,-0.015625,0.000000,-0.027344
3032164000,0.999817,-0.015564,0.013611,-0.000244,0.019531,0.000000,-0.027344
3052393000,0.999817,-0.015564,0.013611,-0.000244,0.019531,0.000000,0.011719
3071496000,0.999817,-0.015564,0.013611,-0.000244,0.019531,0.000000,0.011719
3094157000,0.999817,-0.015564,0.013611,-0.000244,-0.015625,0.000000,0.011719
3115098000,0.999817,-0.015503,0.013611,-0.000244,0.019531,0.000000,0.011719
3131732000,0.999817,-0.015503,0.013611,-0.000244,-0.015625,0.000000,0.011719
3151675000,0.999817,-0.015503,0.013611,-0.000244,-0.015625,0.000000,0.011719
3171196000,0.999817,-0.015503,0.013611,-0.000244,-0.015625,0.000000,0.011719
3196023000,0.999817,-0.015503,0.013611,-0.000244,-0.015625,0.000000,0.011719
3211050000,0.999817,-0.015503,0.013611,-0.000305,0.019531,0.000000,0.011719
3230769000,0.999817,-0.015503,0.013611,-0.000244,-0.015625,0.000000,0.011719
3252818000,0.999817,-0.015503,0.013611,-0.000305,0.019531,0.000000,-0.027344
3271491000,0.999817,-0.015503,0.013611,-0.000305,-0.015625,0.000000,0.011719
3290589000,0.999817,-0.015503,0.013611,-0.000305,0.019531,0.000000,0.011719
3311907000,0.999817,-0.015503,0.013611,-0.000305,0.019531,0.000000,0.011719
3336250000,0.999817,-0.015503,0.013550,-0.000305,0.019531,0.000000,0.011719
3351049000,0.999817,-0.015503,0.013550,-0.000305,-0.015625,0.000000,0.011719
3370969000,0.999817,-0.015442,0.013550,-0.000305,-0.015625,0.000000,-0.027344
3391023000,0.999817,-0.015442,0.013550,-0.000305,-0.015625,0.000000,-0.027344
3412938000,0.999817,-0.015503,0.013550,-0.000305,-0.015625,0.000000,-0.027344
3430927000,0.999817,-0.015442,0.013611,-0.000305,-0.015625,0.000000,0.019531
3450257000,0.999817,-0.015442,0.013611,-0.000244,0.019531,0.000000,0.019531
3471089000,0.999817,-0.015442,0.013611,-0.000305,0.019531,-0.039062,0.019531
3490661000,0.999817,-0.015442,0.013611,-0.000305,-0.015625,0.000000,-0.019531
3511114000,0.999817,-0.015442,0.013611,-0.000305,0.019531,0.000000,-0.019531
3535212000,0.999817,-0.015442,0.013611,-0.000305,-0.015625,0.000000,0.019531
3550046000,0.999817,-0.015503,0.013550,-0.000305,-0.015625,0.000000,-0.019531
3570613000,0.999817,-0.015442,0.013611,-0.000305,-0.015625,0.000000,0.019531
3590555000,0.999817,-0.015442,0.013550,-0.000305,0.019531,0.000000,-0.019531
3619976000,0.999817,-0.015503,0.013550,-0.000305,-0.015625,0.035156,0.019531
3630223000,0.999817,-0.015503,0.013550,-0.000305,-0.015625,0.000000,0.019531
3649900000,0.999817,-0.015503,0.013550,-0.000305,-0.054688,0.000000,-0.019531
3669730000,0.999817,-0.015503,0.013550,-0.000305,-0.007812,0.000000,-0.019531
3699763000,0.999817,-0.015503,0.013550,-0.000305,-0.007812,0.000000,0.058594
3709811000,0.999817,-0.015503,0.013550,-0.000305,0.027344,0.035156,0.019531
3729770000,0.999817,-0.015503,0.013550,-0.000305,-0.007812,0.000000,-0.019531
3749379000,0.999817,-0.015503,0.013550,-0.000305,-0.007812,0.000000,-0.019531
3772096000,0.999817,-0.015503,0.013550,-0.000305,-0.007812,0.000000,0.019531
3789051000,0.999817,-0.015503,0.013550,-0.000305,-0.007812,0.000000,0.019531
3808938000,0.999817,-0.015503,0.013550,-0.000305,-0.007812,0.000000,0.019531
3831873000,0.999817,-0.015503,0.013550,-0.000305,-0.007812,0.000000,0.019531
3853548000,0.999817,-0.015503,0.013550,-0.000305,-0.007812,0.000000,0.019531
3869372000,0.999817,-0.015503,0.013550,-0.000305,-0.007812,0.000000,0.019531
3889453000,0.999817,-0.015503,0.013550,-0.000305,-0.007812,0.000000,0.011719
3911892000,0.999817,-0.015503,0.013550,-0.000305,-0.007812,0.000000,0.011719
3939150000,0.999817,-0.015503,0.013550,-0.000305,-0.007812,0.035156,0.011719
3949526000,0.999817,-0.015503,0.013550,-0.000305,-0.007812,0.000000,0.011719
3968708000,0.999817,-0.015503,0.013550,-0.000305,0.027344,0.000000,0.011719
3999331000,0.999817,-0.015503,0.013550,-0.000305,0.027344,0.000000,0.011719
4008486000,0.999817,-0.015503,0.013550,-0.000305,-0.007812,0.000000,0.011719
4028647000,0.999817,-0.015503,0.013550,-0.000305,0.027344,0.000000,0.011719
4049437000,0.999817,-0.015503,0.013550,-0.000305,-0.007812,0.000000,-0.027344
4075265000,0.999817,-0.015503,0.013550,-0.000305,-0.007812,0.000000,0.011719
4089774000,0.999817,-0.015503,0.013550,-0.000305,-0.007812,0.000000,0.050781
4108938000,0.999817,-0.015503,0.013550,-0.000305,0.027344,0.000000,0.011719
4138881000,0.999817,-0.015503,0.013550,-0.000305,-0.007812,0.000000,-0.027344
4148147000,0.999817,-0.015503,0.013550,-0.000305,-0.007812,0.000000,0.011719
4169106000,0.999817,-0.015503,0.013550,-0.000305,-0.007812,0.000000,-0.027344
4188703000,0.999817,-0.015503,0.013550,-0.000305,-0.007812,0.000000,-0.027344
4218595000,0.999817,-0.015503,0.013550,-0.000305,0.027344,0.000000,0.011719
4227967000,0.999817,-0.015503,0.013550,-0.000305,0.027344,0.000000,0.011719
4248272000,0.999817,-0.015503,0.013550,-0.000305,0.027344,0.000000,0.011719
4267945000,0.999817,-0.015503,0.013550,-0.000305,-0.007812,0.000000,0.011719
4293748000,0.999817,-0.015503,0.013550,-0.000305,-0.007812,0.000000,0.011719
4307594000,0.999817,-0.015503,0.013550,-0.000305,-0.007812,0.000000,0.011719
4328176000,0.999817,-0.015503,0.013550,-0.000305,0.027344,0.000000,0.050781
4357638000,0.999817,-0.015503,0.013550,-0.000305,-0.015625,0.000000,0.003906
4367598000,0.999817,-0.015503,0.013550,-0.000305,-0.015625,0.000000,0.003906
4387523000,0.999817,-0.015503,0.013550,-0.000305,-0.015625,0.000000,0.042969
4408547000,0.999817,-0.015503,0.013550,-0.000305,0.019531,0.000000,0.003906
4433162000,0.999817,-0.015503,0.013550,-0.000305,-0.015625,0.035156,0.003906
4447376000,0.999817,-0.015503,0.013550,-0.000305,0.019531,0.000000,0.003906
4467251000,0.999817,-0.015503,0.013550,-0.000305,0.019531,0.000000,0.003906
4497853000,0.999817,-0.015503,0.013550,-0.000305,-0.015625,0.000000,0.003906
4507053000,0.999817,-0.015503,0.013550,-0.000305,-0.015625,0.000000,0.003906
4528216000,0.999817,-0.015503,0.013550,-0.000305,-0.015625,0.000000,0.003906
4548072000,0.999817,-0.015503,0.013550,-0.000305,-0.015625,0.000000,0.003906
4577582000,0.999817,-0.015503,0.013550,-0.000305,-0.007812,0.035156,-0.035156
4587183000,0.999817,-0.015503,0.013550,-0.000305,0.027344,0.000000,0.042969
4608201000,0.999817,-0.015503,0.013550,-0.000305,-0.007812,0.000000,0.003906
4637087000,0.999817,-0.015503,0.013550,-0.000305,-0.007812,0.000000,0.003906
4657381000,0.999817,-0.015503,0.013550,-0.000305,-0.007812,0.000000,0.003906
4666894000,0.999817,-0.015503,0.013550,-0.000305,-0.007812,0.000000,0.003906
4687087000,0.999817,-0.015503,0.013550,-0.000305,-0.007812,0.000000,0.003906
4707747000,0.999817,-0.015503,0.013550,-0.000305,0.027344,0.035156,0.003906
4729297000,0.999817,-0.015503,0.013550,-0.000305,0.027344,0.000000,0.003906
4746975000,0.999817,-0.015503,0.013550,-0.000305,0.027344,-0.007812,0.003906
4777565000,0.999817,-0.015503,0.013550,-0.000305,-0.007812,-0.007812,-0.035156
4786276000,0.999817,-0.015503,0.013550,-0.000305,-0.007812,-0.007812,0.003906
4807004000,0.999817,-0.015503,0.013550,-0.000305,-0.007812,-0.007812,0.003906
4836768000,0.999817,-0.015503,0.013550,-0.000305,-0.007812,-0.007812,0.003906
4846910000,0.999817,-0.015503,0.013550,-0.000305,0.027344,-0.007812,0.003906
4867685000,0.999817,-0.015503,0.013550,-0.000305,-0.007812,-0.007812,0.003906
4896549000,0.999817,-0.015503,0.013550,-0.000305,-0.007812,-0.007812,0.003906
4906338000,0.999817,-0.015503,0.013550,-0.000305,0.027344,-0.007812,0.003906
4927129000,0.999817,-0.015503,0.013550,-0.000305,-0.007812,-0.007812,0.003906
4955981000,0.999817,-0.015503,0.013550,-0.000305,-0.007812,-0.007812,-0.035156
4972245000,0.999817,-0.015503,0.013550,-0.000305,-0.007812,-0.007812,0.003906
4986210000,0.999817,-0.015503,0.013550,-0.000305,-0.007812,-0.007812,0.003906
5006411000,0.999817,-0.015503,0.013550,-0.000305,0.027344,-0.007812,0.003906
5038606000,0.999817,-0.015503,0.013550,-0.000305,-0.007812,0.000000,0.003906
5053466000,0.999817,-0.015503,0.013550,-0.000305,-0.007812,0.000000,0.003906
5066013000,0.999817,-0.015503,0.013550,-0.000305,-0.007812,0.035156,-0.035156
5086414000,0.999817,-0.015503,0.013550,-0.000305,-0.007812,0.000000,0.003906
5106531000,0.999817,-0.015503,0.013550,-0.000305,-0.007812,0.000000,0.003906
5135675000,0.999817,-0.015503,0.013611,-0.000305,-0.007812,0.000000,0.003906
5146049000,0.999817,-0.015503,0.013611,-0.000305,-0.007812,0.000000,0.003906
5166309000,0.999817,-0.015442,0.013611,-0.000305,-0.007812,0.000000,0.003906
5186250000,0.999817,-0.015442,0.013611,-0.000305,0.027344,0.000000,0.003906
5215612000,0.999817,-0.015442,0.013611,-0.000305,0.027344,0.035156,0.003906
5235400000,0.999817,-0.015503,0.013611,-0.000305,-0.007812,0.000000,-0.035156
5251655000,0.999817,-0.015503,0.013611,-0.000305,-0.007812,0.035156,0.003906
5266120000,0.999817,-0.015442,0.013672,-0.000305,0.027344,0.000000,0.042969
5286111000,0.999817,-0.015503,0.013611,-0.000305,-0.007812,-0.007812,-0.035156
5315083000,0.999817,-0.015503,0.013611,-0.000305,-0.007812,-0.007812,0.003906
5335953000,0.999817,-0.015503,0.013611,-0.000305,-0.007812,-0.007812,0.003906
5356139000,0.999756,-0.015503,0.013611,-0.000305,0.027344,0.027344,-0.035156
5365135000,0.999756,-0.015503,0.013611,-0.000305,0.027344,-0.007812,0.003906
5385772000,0.999756,-0.015503,0.013672,-0.000305,0.027344,-0.007812,0.003906
5405872000,0.999756,-0.015503,0.013672,-0.000305,-0.007812,-0.007812,0.003906
5435077000,0.999756,-0.015564,0.013672,-0.000305,-0.015625,-0.007812,0.003906
5448002000,0.999756,-0.015564,0.013672,-0.000305,-0.015625,-0.007812,0.003906
5474894000,0.999756,-0.015564,0.013672,-0.000244,-0.015625,-0.007812,0.003906
5495533000,0.999756,-0.015564,0.013672,-0.000305,0.019531,-0.007812,0.003906
5514787000,0.999756,-0.015564,0.013672,-0.000244,-0.015625,-0.007812,0.003906
5524933000,0.999756,-0.015503,0.013672,-0.000305,-0.015625,0.027344,0.042969
5545592000,0.999756,-0.015503,0.013672,-0.000305,0.019531,-0.007812,0.003906
5565688000,0.999756,-0.015503,0.013672,-0.000305,-0.015625,-0.007812,0.003906
5594450000,0.999756,-0.015503,0.013733,-0.000305,-0.015625,0.027344,0.042969
5610828000,0.999756,-0.015503,0.013733,-0.000305,0.019531,-0.007812,0.003906
5625442000,0.999756,-0.015503,0.013733,-0.000244,-0.015625,-0.007812,0.003906
5654708000,0.999756,-0.015442,0.013733,-0.000305,0.019531,-0.007812,0.003906
5675061000,0.999756,-0.015442,0.013733,-0.000244,0.019531,-0.007812,0.003906
5684300000,0.999817,-0.015442,0.013733,-0.000244,-0.015625,-0.007812,0.003906
5706474000,0.999817,-0.015442,0.013733,-0.000244,0.019531,-0.007812,0.003906
5725241000,0.999756,-0.015442,0.013733,-0.000244,0.019531,0.000000,0.003906
5746203000,0.999756,-0.015442,0.013733,-0.000244,-0.015625,0.000000,-0.003906
5766472000,0.999756,-0.015442,0.013733,-0.000244,-0.015625,0.000000,-0.003906
5794241000,0.999756,-0.015442,0.013733,-0.000244,-0.015625,0.000000,-0.003906
5804262000,0.999756,-0.015442,0.013733,-0.000244,-0.015625,0.000000,-0.003906
5825679000,0.999756,-0.015442,0.013733,-0.000244,-0.015625,0.000000,-0.003906
5846407000,0.999756,-0.015442,0.013794,-0.000244,0.019531,0.000000,0.035156
5873617000,0.999756,-0.015442,0.013794,-0.000244,0.027344,0.000000,-0.003906
5890722000,0.999756,-0.015442,0.013794,-0.000244,0.027344,0.000000,-0.003906
5905920000,0.999756,-0.015442,0.013794,-0.000244,-0.007812,0.000000,-0.003906
5933756000,0.999756,-0.015442,0.013794,-0.000244,-0.046875,0.000000,-0.003906
5953900000,0.999756,-0.015381,0.013794,-0.000244,0.027344,0.000000,-0.003906
5974122000,0.999756,-0.015442,0.013794,-0.000244,0.027344,0.000000,0.035156
5989747000,0.999756,-0.015442,0.013794,-0.000244,0.027344,0.000000,-0.003906
6005169000,0.999756,-0.015442,0.013794,-0.000244,0.019531,0.000000,-0.003906
6033698000,0.999756,-0.015442,0.013794,-0.000244,0.019531,0.000000,-0.042969
6053957000,0.999756,-0.015442,0.013855,-0.000244,0.019531,0.000000,-0.003906
6073469000,0.999756,-0.015442,0.013855,-0.000244,-0.015625,0.000000,0.035156
6093558000,0.999756,-0.015503,0.013855,-0.000244,0.019531,0.000000,-0.003906
6113230000,0.999756,-0.015503,0.013855,-0.000305,-0.015625,0.000000,-0.003906
6133041000,0.999756,-0.015503,0.013855,-0.000305,-0.015625,0.000000,-0.003906
6152927000,0.999756,-0.015503,0.013916,-0.000305,0.019531,0.035156,-0.003906
6165629000,0.999756,-0.015503,0.013916,-0.000305,-0.015625,0.000000,0.035156
6197205000,0.999756,-0.015503,0.013916,-0.000305,-0.015625,0.035156,-0.003906
6212948000,0.999756,-0.015503,0.013916,-0.000305,-0.015625,0.000000,0.035156
6232854000,0.999756,-0.015503,0.013916,-0.000305,-0.015625,0.000000,-0.003906
6252511000,0.999756,-0.015503,0.013916,-0.000305,-0.015625,-0.007812,-0.003906
6278094000,0.999756,-0.015503,0.013916,-0.000305,-0.015625,-0.007812,-0.003906
6292554000,0.999756,-0.015503,0.013916,-0.000305,-0.015625,-0.007812,0.035156
6313282000,0.999756,-0.015503,0.013916,-0.000305,-0.015625,-0.007812,-0.003906
6332866000,0.999756,-0.015503,0.013916,-0.000305,0.019531,0.000000,-0.003906
6353326000,0.999756,-0.015503,0.013916,-0.000305,-0.015625,0.000000,-0.003906
6372598000,0.999756,-0.015503,0.013916,-0.000305,-0.015625,0.000000,-0.003906
6392976000,0.999756,-0.015503,0.013916,-0.000305,0.019531,0.000000,-0.003906
6417081000,0.999756,-0.015503,0.013916,-0.000305,-0.015625,0.000000,-0.003906
6432325000,0.999756,-0.015503,0.013916,-0.000305,0.027344,0.000000,-0.003906
6452175000,0.999756,-0.015503,0.013916,-0.000305,-0.007812,0.000000,-0.003906
6482515000,0.999756,-0.015503,0.013916,-0.000305,-0.007812,0.000000,-0.003906
6497386000,0.999756,-0.015503,0.013916,-0.000305,-0.007812,0.000000,-0.003906
6512339000,0.999756,-0.015503,0.013916,-0.000305,0.027344,0.000000,-0.003906
6531980000,0.999756,-0.015503,0.013916,-0.000305,0.027344,0.000000,-0.003906
6551985000,0.999756,-0.015503,0.013916,-0.000305,-0.015625,0.000000,-0.003906
6573953000,0.999756,-0.015503,0.013916,-0.000305,-0.015625,0.035156,-0.003906
6591694000,0.999756,-0.015503,0.013916,-0.000305,-0.015625,0.035156,-0.003906
6612154000,0.999756,-0.015503,0.013916,-0.000305,0.019531,0.000000,-0.003906
6634206000,0.999756,-0.015503,0.013916,-0.000305,-0.015625,0.000000,-0.003906
6652009000,0.999756,-0.015503,0.013916,-0.000305,0.019531,-0.007812,-0.003906
6671854000,0.999756,-0.015503,0.013916,-0.000305,0.019531,-0.007812,-0.003906
6691665000,0.999756,-0.015503,0.013916,-0.000305,-0.015625,-0.007812,-0.003906
6712302000,0.999756,-0.015503,0.013916,-0.000305,0.019531,-0.007812,0.003906
6731772000,0.999756,-0.015503,0.013916,-0.000305,0.019531,-0.007812,-0.035156
6751147000,0.999756,-0.015503,0.013916,-0.000305,-0.015625,-0.007812,0.003906
6781251000,0.999756,-0.015503,0.013916,-0.000305,-0.015625,-0.007812,0.003906
6795181000,0.999756,-0.015503,0.013916,-0.000305,0.019531,-0.007812,-0.035156
6811761000,0.999756,-0.015503,0.013916,-0.000305,0.019531,-0.007812,0.003906
6831100000,0.999756,-0.015503,0.013916,-0.000305,-0.015625,-0.007812,0.003906
6851053000,0.999756,-0.015503,0.013916,-0.000305,-0.015625,-0.007812,0.003906
6873660000,0.999756,-0.015503,0.013916,-0.000305,0.019531,-0.007812,0.003906
6890948000,0.999756,-0.015503,0.013916,-0.000305,-0.015625,0.027344,0.003906
6912230000,0.999756,-0.015503,0.013916,-0.000305,0.019531,0.027344,0.003906
6930725000,0.999756,-0.015503,0.013916,-0.000305,0.019531,0.027344,0.003906
6951265000,0.999756,-0.015503,0.013916,-0.000305,-0.015625,-0.007812,0.003906
6973228000,0.999756,-0.015503,0.013916,-0.000305,-0.015625,0.027344,0.003906
6990818000,0.999756,-0.015503,0.013916,-0.000305,-0.007812,-0.007812,0.003906
7011201000,0.999756,-0.015503,0.013916,-0.000305,0.027344,-0.007812,0.003906
7030726000,0.999756,-0.015503,0.013916,-0.000305,-0.007812,-0.007812,0.003906
7054020000,0.999756,-0.015503,0.013916,-0.000305,0.027344,0.027344,0.003906
7070834000,0.999756,-0.015503,0.013916,-0.000305,0.019531,-0.007812,0.003906
7100176000,0.999756,-0.015503,0.013916,-0.000305,0.019531,-0.007812,0.003906
7116608000,0.999756,-0.015503,0.013916,-0.000305,0.019531,-0.007812,0.003906
7130054000,0.999756,-0.015503,0.013916,-0.000305,0.019531,-0.007812,0.003906
7150343000,0.999756,-0.015503,0.013916,-0.000305,0.019531,-0.007812,0.003906
7171542000,0.999756,-0.015503,0.013916,-0.000305,-0.015625,-0.007812,0.042969
7195547000,0.999756,-0.015503,0.013916,-0.000305,0.019531,-0.007812,0.003906
7210524000,0.999756,-0.015503,0.013916,-0.000305,0.019531,-0.007812,-0.035156
7229836000,0.999756,-0.015503,0.013916,-0.000305,-0.015625,-0.007812,-0.035156
7250320000,0.999756,-0.015503,0.013916,-0.000305,-0.015625,-0.007812,0.003906
7271103000,0.999756,-0.015503,0.013916,-0.000305,-0.015625,-0.007812,0.042969
7297167000,0.999756,-0.015503,0.013916,-0.000305,0.019531,0.027344,-0.035156
7309515000,0.999756,-0.015503,0.013916,-0.000305,-0.015625,-0.007812,0.003906
7330206000,0.999756,-0.015503,0.013916,-0.000305,-0.015625,-0.007812,0.003906
7350473000,0.999756,-0.015503,0.013916,-0.000305,0.019531,-0.007812,0.003906
7373842000,0.999756,-0.015503,0.013916,-0.000305,0.019531,-0.007812,0.003906
7391429000,0.999756,-0.015503,0.013916,-0.000305,-0.015625,-0.007812,0.003906
7409430000,0.999756,-0.015503,0.013916,-0.000305,0.019531,-0.007812,0.003906
7430089000,0.999756,-0.015503,0.013916,-0.000305,-0.015625,-0.007812,0.003906
7460502000,0.999756,-0.015503,0.013916,-0.000305,-0.015625,-0.007812,0.042969
7469555000,0.999756,-0.015503,0.013916,-0.000305,-0.015625,-0.007812,0.003906
7489696000,0.999756,-0.015503,0.013916,-0.000305,-0.015625,-0.007812,0.003906
7510077000,0.999756,-0.015503,0.013916,-0.000305,0.019531,-0.007812,0.003906
7539335000,0.999756,-0.015503,0.013916,-0.000305,-0.015625,0.027344,0.003906
7553621000,0.999756,-0.015503,0.013916,-0.000305,0.019531,-0.007812,0.003906
7569240000,0.999756,-0.015503,0.013916,-0.000305,-0.015625,0.027344,0.042969
7589435000,0.999756,-0.015503,0.013916,-0.000305,-0.015625,-0.007812,0.003906
7608869000,0.999756,-0.015503,0.013916,-0.000305,0.019531,-0.007812,-0.035156
7638858000,0.999756,-0.015503,0.013916,-0.000305,-0.015625,-0.007812,0.003906
7649055000,0.999756,-0.015503,0.013916,-0.000305,-0.015625,-0.007812,0.003906
7669173000,0.999756,-0.015503,0.013916,-0.000305,-0.015625,-0.007812,0.003906
7701407000,0.999756,-0.015503,0.013916,-0.000305,-0.015625,-0.007812,0.035156
7708453000,0.999756,-0.015503,0.013916,-0.000305,0.019531,-0.007812,-0.003906
7728569000,0.999756,-0.015503,0.013916,-0.000305,0.019531,-0.007812,-0.003906
7748926000,0.999756,-0.015503,0.013916,-0.000305,-0.015625,-0.007812,-0.003906
7779222000,0.999756,-0.015503,0.013916,-0.000305,-0.015625,-0.007812,-0.003906
7792803000,0.999756,-0.015503,0.013916,-0.000305,-0.015625,-0.007812,-0.003906
7809349000,0.999756,-0.015503,0.013916,-0.000305,0.019531,-0.007812,-0.003906
7828603000,0.999756,-0.015503,0.013916,-0.000305,-0.015625,-0.007812,-0.003906
7849716000,0.999756,-0.015503,0.013916,-0.000305,-0.015625,-0.007812,-0.003906
7874926000,0.999756,-0.015503,0.013916,-0.000305,0.019531,-0.007812,0.035156
7888275000,0.999756,-0.015503,0.013916,-0.000305,0.019531,0.027344,0.035156
7908222000,0.999756,-0.015503,0.013916,-0.000305,0.019531,-0.007812,-0.003906
7928707000,0.999756,-0.015503,0.013916,-0.000305,-0.015625,-0.046875,-0.003906
7947903000,0.999756,-0.015503,0.013916,-0.000305,-0.015625,-0.007812,-0.003906
7968322000,0.999756,-0.015503,0.013916,-0.000305,-0.015625,-0.007812,-0.003906
7988596000,0.999756,-0.015503,0.013916,-0.000305,0.019531,0.000000,-0.003906
8017819000,0.999756,-0.015503,0.013916,-0.000305,-0.015625,0.000000,-0.003906
8027941000,0.999756,-0.015503,0.013916,-0.000305,-0.015625,0.000000,-0.003906
8047492000,0.999756,-0.015503,0.013916,-0.000305,0.019531,0.000000,-0.003906
8068179000,0.999756,-0.015503,0.013916,-0.000305,-0.015625,0.035156,-0.042969
8097490000,0.999756,-0.015503,0.013916,-0.000305,-0.015625,0.035156,0.003906
8111253000,0.999756,-0.015503,0.013916,-0.000305,-0.015625,0.000000,0.003906
8127836000,0.999756,-0.015503,0.013916,-0.000305,-0.015625,0.027344,0.003906
8152773000,0.999756,-0.015503,0.013916,-0.000305,-0.015625,-0.007812,0.003906
8167134000,0.999756,-0.015503,0.013916,-0.000305,0.019531,-0.007812,0.003906
8187710000,0.999756,-0.015503,0.013916,-0.000305,-0.015625,-0.007812,0.003906
8217978000,0.999756,-0.015503,0.013916,-0.000305,-0.015625,-0.007812,0.003906
8231441000,0.999756,-0.015503,0.013916,-0.000305,-0.015625,-0.007812,0.003906
8246939000,0.999756,-0.015503,0.013916,-0.000305,-0.015625,-0.007812,-0.003906
8267709000,0.999756,-0.015503,0.013916,-0.000305,-0.015625,-0.007812,-0.003906
8287171000,0.999756,-0.015503,0.013916,-0.000305,-0.015625,-0.007812,-0.003906
8317340000,0.999756,-0.015503,0.013916,-0.000305,-0.007812,-0.007812,-0.003906
8326945000,0.999756,-0.015503,0.013916,-0.000305,-0.007812,-0.007812,-0.003906
8346809000,0.999756,-0.015503,0.013916,-0.000305,-0.007812,-0.007812,-0.003906
8376926000,0.999756,-0.015503,0.013916,-0.000305,0.027344,-0.007812,-0.003906
8387206000,0.999756,-0.015503,0.013916,-0.000305,0.027344,-0.007812,-0.003906
8407792000,0.999756,-0.015503,0.013916,-0.000305,-0.007812,0.000000,-0.003906
8427486000,0.999756,-0.015503,0.013916,-0.000305,-0.007812,0.035156,0.035156
8456679000,0.999756,-0.015503,0.013916,-0.000305,-0.007812,0.000000,0.035156
8466791000,0.999756,-0.015503,0.013916,-0.000305,0.027344,0.000000,-0.003906
8487265000,0.999756,-0.015503,0.013916,-0.000305,-0.007812,0.000000,-0.003906
8506682000,0.999756,-0.015503,0.013916,-0.000305,0.027344,0.000000,-0.003906
8536085000,0.999756,-0.015503,0.013916,-0.000305,-0.007812,0.000000,-0.003906
8553142000,0.999756,-0.015503,0.013916,-0.000305,0.027344,0.000000,-0.042969
8567039000,0.999756,-0.015503,0.013916,-0.000305,-0.007812,0.035156,0.035156
8586485000,0.999756,-0.015503,0.013916,-0.000305,0.027344,0.035156,-0.003906
8606418000,0.999756,-0.015503,0.013916,-0.000305,0.019531,-0.007812,-0.003906
8636151000,0.999756,-0.015503,0.013916,-0.000305,0.019531,-0.007812,-0.003906
8646006000,0.999756,-0.015503,0.013916,-0.000305,-0.015625,0.027344,0.003906
8666330000,0.999756,-0.015503,0.013916,-0.000305,-0.015625,-0.007812,-0.035156
8686565000,0.999756,-0.015503,0.013916,-0.000305,-0.015625,-0.007812,0.003906
8706647000,0.999756,-0.015503,0.013916,-0.000305,0.019531,-0.007812,0.003906
8727004000,0.999756,-0.015503,0.013916,-0.000305,0.019531,0.027344,0.003906
8746641000,0.999756,-0.015503,0.013916,-0.000305,-0.015625,-0.007812,0.003906
8776261000,0.999756,-0.015503,0.013916,-0.000305,-0.015625,-0.007812,0.035156
8790055000,0.999756,-0.015503,0.013916,-0.000305,0.019531,-0.007812,-0.003906
8811781000,0.999756,-0.015503,0.013916,-0.000305,0.019531,0.027344,-0.003906
8841230000,0.999756,-0.015503,0.013916,-0.000305,-0.015625,0.027344,0.035156
8855160000,0.999756,-0.015564,0.013855,-0.000305,-0.054688,-0.046875,-0.042969
8866597000,0.999756,-0.015564,0.013855,-0.000305,0.019531,0.027344,-0.003906
8886139000,0.999756,-0.015503,0.013916,-0.000305,0.019531,-0.007812,0.035156
8915154000,0.999756,-0.015564,0.013855,-0.000305,-0.015625,-0.007812,-0.003906
8933198000,0.999756,-0.015564,0.013855,-0.000305,0.019531,-0.007812,-0.003906
8945960000,0.999756,-0.015625,0.013855,-0.000305,-0.015625,-0.007812,-0.003906
8965990000,0.999756,-0.015625,0.013855,-0.000305,-0.015625,-0.007812,-0.003906
8995198000,0.999756,-0.015625,0.013855,-0.000305,-0.015625,-0.007812,-0.003906
9005621000,0.999756,-0.015625,0.013794,-0.000305,0.027344,-0.007812,-0.003906
9026088000,0.999756,-0.015625,0.013794,-0.000305,0.019531,-0.007812,0.035156
9046022000,0.999756,-0.015686,0.013794,-0.000305,-0.007812,-0.007812,-0.003906
9075197000,0.999756,-0.015625,0.013794,-0.000305,-0.007812,-0.007812,0.035156
9085501000,0.999756,-0.015625,0.013855,-0.000305,0.027344,-0.007812,-0.042969
9116911000,0.999756,-0.015625,0.013794,-0.000305,-0.007812,-0.007812,0.027344
9134299000,0.999756,-0.015564,0.013794,-0.000305,-0.007812,-0.007812,-0.011719
9150803000,0.999756,-0.015564,0.013855,-0.000305,0.027344,-0.007812,0.027344
9165754000,0.999756,-0.015564,0.013855,-0.000305,0.027344,-0.007812,0.027344
9195448000,0.999756,-0.015625,0.013855,-0.000305,-0.015625,-0.007812,-0.011719
9214508000,0.999756,-0.015564,0.013855,-0.000305,0.019531,-0.007812,-0.011719
9230834000,0.999756,-0.015564,0.013794,-0.000305,-0.015625,-0.007812,-0.011719
9245493000,0.999756,-0.015564,0.013855,-0.000366,0.019531,-0.007812,0.027344
9265642000,0.999756,-0.015564,0.013794,-0.000366,-0.015625,-0.007812,-0.011719
9285838000,0.999756,-0.015564,0.013794,-0.000366,0.019531,-0.007812,0.027344
9314416000,0.999756,-0.015564,0.013794,-0.000366,-0.015625,0.027344,-0.011719
9324523000,0.999756,-0.015564,0.013794,-0.000366,-0.015625,-0.007812,-0.011719
9345964000,0.999756,-0.015564,0.013794,-0.000366,-0.015625,-0.007812,0.027344
9365827000,0.999756,-0.015564,0.013794,-0.000366,0.019531,-0.007812,0.027344
9394876000,0.999756,-0.015625,0.013794,-0.000366,0.011719,-0.007812,-0.011719
9404636000,0.999756,-0.015564,0.013794,-0.000366,-0.023438,-0.007812,-0.011719
9425615000,0.999756,-0.015625,0.013794,-0.000366,-0.015625,-0.007812,0.027344
9445726000,0.999756,-0.015625,0.013794,-0.000366,-0.007812,0.000000,-0.011719
9465555000,0.999756,-0.015625,0.013794,-0.000305,0.027344,0.000000,-0.011719
9485607000,0.999756,-0.015625,0.013794,-0.000305,-0.007812,0.035156,-0.011719
9506521000,0.999756,-0.015625,0.013794,-0.000366,-0.007812,0.000000,-0.011719
9534340000,0.999756,-0.015625,0.013794,-0.000305,-0.007812,-0.007812,0.027344
9544689000,0.999756,-0.015625,0.013794,-0.000305,0.027344,-0.007812,-0.011719
9565662000,0.999756,-0.015564,0.013794,-0.000305,-0.007812,-0.007812,-0.011719
9593586000,0.999756,-0.015564,0.013794,-0.000305,0.027344,0.027344,0.027344
9604118000,0.999756,-0.015625,0.013794,-0.000305,-0.007812,-0.007812,-0.011719
9626628000,0.999756,-0.015625,0.013794,-0.000305,-0.007812,-0.007812,-0.011719
9654180000,0.999756,-0.015625,0.013855,-0.000305,0.027344,-0.007812,-0.011719
9673786000,0.999756,-0.015625,0.013855,-0.000366,-0.007812,-0.007812,-0.003906
9690304000,0.999756,-0.015625,0.013794,-0.000305,-0.007812,-0.007812,-0.003906
9715852000,0.999756,-0.015625,0.013794,-0.000366,-0.007812,-0.007812,-0.003906
9724350000,0.999756,-0.015625,0.013794,-0.000366,-0.007812,-0.007812,-0.042969
9753890000,0.999756,-0.015625,0.013794,-0.000366,0.027344,-0.007812,0.035156
9770385000,0.999756,-0.015686,0.013794,-0.000366,-0.007812,0.027344,0.035156
9793711000,0.999756,-0.015625,0.013794,-0.000366,-0.007812,-0.007812,-0.003906
9813456000,0.999756,-0.015625,0.013794,-0.000366,0.027344,-0.007812,-0.003906
9836368000,0.999756,-0.015686,0.013794,-0.000366,-0.007812,-0.007812,0.035156
9853181000,0.999756,-0.015686,0.013794,-0.000366,0.019531,-0.007812,-0.003906
9872990000,0.999756,-0.015625,0.013794,-0.000427,-0.015625,0.000000,-0.003906
9892579000,0.999756,-0.015625,0.013794,-0.000427,0.019531,0.035156,-0.003906
9912709000,0.999756,-0.015625,0.013794,-0.000427,-0.015625,-0.007812,-0.003906
9938130000,0.999756,-0.015625,0.013794,-0.000427,-0.015625,-0.007812,0.035156
9953140000,0.999756,-0.015625,0.013794,-0.000427,-0.015625,0.000000,0.003906
9972466000,0.999756,-0.015625,0.013794,-0.000427,0.019531,-0.007812,0.003906
9992417000,0.999756,-0.015625,0.013794,-0.000427,0.019531,-0.007812,0.003906
10012272000,0.999756,-0.015625,0.013794,-0.000427,-0.023438,-0.007812,0.003906
10032173000,0.999756,-0.015625,0.013794,-0.000427,-0.023438,-0.007812,0.003906
10054663000,0.999756,-0.015625,0.013733,-0.000427,-0.023438,-0.007812,0.003906
10077987000,0.999756,-0.015686,0.013733,-0.000427,-0.023438,-0.007812,0.003906
10092382000,0.999756,-0.015625,0.013733,-0.000427,0.011719,-0.007812,0.003906
10112217000,0.999756,-0.015625,0.013733,-0.000427,-0.023438,-0.007812,0.003906
10132366000,0.999756,-0.015686,0.013733,-0.000427,0.011719,-0.007812,0.003906
10152692000,0.999756,-0.015686,0.013733,-0.000427,-0.023438,-0.007812,0.003906
10172304000,0.999756,-0.015686,0.013733,-0.000427,-0.023438,-0.007812,0.003906
10184212000,0.999756,-0.015686,0.013733,-0.000427,0.019531,-0.007812,-0.035156
10211694000,0.999756,-0.015686,0.013733,-0.000427,0.019531,-0.007812,0.042969
10231452000,0.999756,-0.015686,0.013733,-0.000427,-0.015625,-0.007812,0.003906
10252730000,0.999756,-0.015686,0.013733,-0.000427,0.019531,-0.007812,0.003906
10277212000,0.999756,-0.015686,0.013733,-0.000427,-0.015625,-0.007812,0.042969
10291739000,0.999756,-0.015686,0.013733,-0.000427,-0.015625,-0.007812,0.003906
10311788000,0.999756,-0.015686,0.013733,-0.000427,-0.015625,0.027344,0.003906
10331585000,0.999756,-0.015686,0.013733,-0.000427,-0.015625,-0.007812,0.003906
10356513000,0.999756,-0.015686,0.013733,-0.000427,-0.015625,-0.007812,0.003906
10371184000,0.999756,-0.015686,0.013733,-0.000427,-0.015625,-0.007812,-0.035156
10391670000,0.999756,-0.015686,0.013733,-0.000427,-0.015625,0.027344,0.003906
10411089000,0.999756,-0.015686,0.013733,-0.000427,-0.015625,-0.007812,0.003906
10434251000,0.999756,-0.015686,0.013733,-0.000427,0.019531,-0.007812,0.003906
10451535000,0.999756,-0.015686,0.013733,-0.000427,-0.015625,-0.007812,0.003906
10471426000,0.999756,-0.015686,0.013733,-0.000427,0.019531,-0.007812,0.003906
10490830000,0.999756,-0.015686,0.013733,-0.000427,-0.015625,-0.007812,0.003906
10521109000,0.999756,-0.015686,0.013733,-0.000427,0.019531,-0.007812,0.042969
10537428000,0.999756,-0.015686,0.013733,-0.000427,0.019531,0.027344,0.003906
10550672000,0.999756,-0.015686,0.013733,-0.000427,-0.015625,-0.007812,0.003906
10570987000,0.999756,-0.015686,0.013733,-0.000427,-0.015625,-0.007812,0.003906
10591065000,0.999756,-0.015686,0.013733,-0.000427,-0.015625,-0.007812,0.003906
10610761000,0.999756,-0.015686,0.013733,-0.000427,0.019531,-0.007812,0.003906
10635694000,0.999756,-0.015686,0.013733,-0.000427,0.019531,-0.007812,0.042969
10650594000,0.999756,-0.015686,0.013733,-0.000427,-0.015625,-0.007812,0.003906
10669916000,0.999756,-0.015686,0.013733,-0.000427,0.019531,-0.007812,0.042969
10690282000,0.999756,-0.015686,0.013733,-0.000427,-0.015625,-0.007812,0.035156
10713783000,0.999756,-0.015686,0.013733,-0.000427,-0.015625,-0.007812,0.035156
10730857000,0.999756,-0.015686,0.013733,-0.000427,-0.015625,-0.007812,-0.003906
10750236000,0.999756,-0.015686,0.013733,-0.000427,-0.015625,-0.007812,-0.003906
10772812000,0.999756,-0.015686,0.013733,-0.000427,-0.015625,-0.007812,-0.003906
10800213000,0.999756,-0.015686,0.013733,-0.000427,-0.015625,-0.007812,-0.003906
10816977000,0.999756,-0.015686,0.013733,-0.000427,0.019531,-0.007812,-0.003906
10829945000,0.999756,-0.015686,0.013733,-0.000427,0.019531,0.027344,-0.003906
10850080000,0.999756,-0.015686,0.013733,-0.000427,0.019531,-0.007812,0.035156
10870836000,0.999756,-0.015686,0.013733,-0.000427,-0.015625,-0.007812,0.035156
10895309000,0.999756,-0.015686,0.013794,-0.000427,0.019531,-0.007812,-0.003906
10910355000,0.999756,-0.015686,0.013855,-0.000427,0.027344,0.027344,0.070312
10929715000,0.999756,-0.015686,0.013855,-0.000427,0.027344,-0.007812,0.035156
10949637000,0.999756,-0.015686,0.013977,-0.000427,0.027344,0.027344,0.035156
10979891000,0.999756,-0.015747,0.013916,-0.000427,-0.007812,0.027344,-0.003906
10989518000,0.999756,-0.015747,0.013794,-0.000427,-0.007812,-0.007812,-0.003906
11009321000,0.999756,-0.015747,0.013794,-0.000427,0.058594,-0.007812,0.070312
11029897000,0.999756,-0.015747,0.013794,-0.000427,0.027344,0.027344,0.027344
11059543000,0.999756,-0.015747,0.013794,-0.000427,-0.007812,-0.007812,-0.011719
11078325000,0.999756,-0.015747,0.013794,-0.000427,-0.007812,-0.007812,-0.011719
11089161000,0.999756,-0.015747,0.013855,-0.000427,0.027344,0.027344,0.027344
11109375000,0.999756,-0.015930,0.013794,-0.000427,0.027344,0.000000,-0.011719
11130270000,0.999756,-0.015869,0.013794,-0.000366,-0.054688,0.113281,-0.050781
11154203000,0.999756,-0.015808,0.013733,-0.000427,0.019531,0.027344,-0.011719
11168947000,0.999756,-0.015747,0.013733,-0.000427,-0.015625,-0.007812,-0.011719
11189173000,0.999756,-0.015808,0.013733,-0.000427,-0.015625,-0.015625,-0.011719
11210162000,0.999756,-0.015808,0.013733,-0.000427,-0.015625,0.027344,-0.011719
11236258000,0.999756,-0.015747,0.013733,-0.000427,0.019531,-0.007812,0.027344
11248935000,0.999756,-0.015747,0.013794,-0.000427,0.019531,-0.015625,0.035156
11268957000,0.999756,-0.015686,0.013855,-0.000427,0.011719,-0.054688,0.035156
11299976000,0.999756,-0.015747,0.013794,-0.000427,-0.015625,-0.015625,-0.003906
11308771000,0.999756,-0.015747,0.013794,-0.000427,-0.015625,-0.015625,0.035156
11329426000,0.999756,-0.015747,0.013733,-0.000427,-0.015625,-0.015625,0.035156
11352401000,0.999756,-0.015808,0.013672,-0.000427,-0.015625,0.019531,-0.042969
11369035000,0.999756,-0.015869,0.013611,-0.000427,-0.015625,-0.007812,0.035156
11388983000,0.999756,-0.015869,0.013611,-0.000427,0.019531,-0.007812,-0.003906
11408767000,0.999756,-0.015869,0.013550,-0.000427,0.011719,0.000000,-0.003906
11438465000,0.999756,-0.015808,0.013611,-0.000427,0.011719,0.000000,0.035156
11454334000,0.999756,-0.015808,0.013672,-0.000427,-0.023438,0.000000,-0.003906
11468226000,0.999756,-0.015747,0.013672,-0.000427,-0.015625,0.000000,-0.003906
11498756000,0.999756,-0.015686,0.013733,-0.000427,-0.015625,-0.007812,-0.003906
11508152000,0.999756,-0.015686,0.013733,-0.000427,0.019531,-0.007812,0.035156
11528347000,0.999756,-0.015686,0.013794,-0.000427,0.019531,0.027344,0.035156
11548088000,0.999756,-0.015686,0.013794,-0.000427,0.019531,-0.046875,0.035156
11578494000,0.999756,-0.015686,0.013794,-0.000488,-0.015625,-0.007812,-0.003906
11595038000,0.999756,-0.015686,0.013855,-0.000488,0.019531,-0.007812,-0.003906
11607988000,0.999756,-0.015564,0.014038,-0.000549,0.027344,-0.007812,0.035156
11628063000,0.999756,-0.015442,0.014282,-0.000671,-0.007812,-0.007812,0.035156
11650706000,0.999756,-0.015625,0.014587,-0.001526,-0.007812,0.027344,-0.042969
11673755000,0.999756,-0.015686,0.014771,-0.002380,0.000000,0.074219,-0.042969
11688509000,0.999756,-0.015625,0.014771,-0.002808,0.000000,-0.230469,-0.042969
11708704000,0.999756,-0.015564,0.014832,-0.003296,0.000000,0.000000,-0.003906
11728269000,0.999756,-0.015564,0.014954,-0.004150,0.035156,0.027344,0.035156
11758089000,0.999756,-0.015564,0.015259,-0.006836,0.066406,0.218750,0.035156
11767765000,0.999756,-0.015564,0.015381,-0.008057,0.105469,0.136719,0.035156
11787607000,0.999695,-0.015564,0.015564,-0.010498,0.027344,-0.085938,-0.003906
11807382000,0.999695,-0.015625,0.015442,-0.011597,-0.429688,-0.355469,-0.042969
11827284000,0.999695,-0.015564,0.015320,-0.011719,-0.093750,-0.132812,-0.003906
11857684000,0.999695,-0.015564,0.015381,-0.011719,0.019531,-0.015625,0.035156
11872748000,0.999695,-0.015625,0.015442,-0.011719,-0.015625,0.019531,-0.003906
11886917000,0.999695,-0.015686,0.015564,-0.011719,0.011719,-0.015625,0.035156
11907653000,0.999695,-0.015503,0.015564,-0.012451,-0.015625,0.019531,-0.003906
11927429000,0.999634,-0.015503,0.015503,-0.013977,0.019531,0.097656,0.035156
11951934000,0.999634,-0.015503,0.015442,-0.015320,-0.093750,0.019531,-0.042969
11966988000,0.999634,-0.015442,0.015442,-0.016052,-0.054688,-0.132812,-0.003906
11987117000,0.999634,-0.015503,0.015503,-0.016357,-0.023438,-0.093750,-0.003906
12008651000,0.999634,-0.015564,0.015503,-0.016357,0.019531,-0.093750,-0.003906
12032059000,0.999634,-0.015686,0.015564,-0.016357,-0.015625,-0.054688,0.035156
12047101000,0.999634,-0.015686,0.015625,-0.016357,-0.015625,-0.007812,-0.003906
12076708000,0.999634,-0.015808,0.015686,-0.016479,-0.015625,-0.007812,-0.003906
12086931000,0.999634,-0.015869,0.015686,-0.016479,-0.054688,-0.046875,-0.003906
12106858000,0.999634,-0.015808,0.015686,-0.016479,-0.054688,-0.046875,-0.003906
12127496000,0.999634,-0.015808,0.015564,-0.016602,-0.015625,-0.007812,-0.003906
12153217000,0.999634,-0.015930,0.015503,-0.016663,-0.015625,-0.046875,-0.003906
12166941000,0.999634,-0.015991,0.015442,-0.016663,0.019531,-0.046875,0.035156
12186854000,0.999634,-0.015686,0.015076,-0.016907,0.050781,0.074219,-0.042969
12216918000,0.999634,-0.014709,0.013977,-0.019165,0.878906,0.441406,0.035156
12237326000,0.999573,-0.013672,0.012817,-0.022522,1.246094,0.121094,0.070312
12246296000,0.999573,-0.013733,0.011536,-0.023987,1.460938,0.066406,-0.195312
12278203000,0.999512,-0.013855,0.006531,-0.027039,1.160156,0.351562,-0.312500
12284693000,0.999512,-0.010071,0.004089,-0.028870,1.242188,0.117188,-0.242188
12311338000,0.999451,-0.005432,-0.000244,-0.032471,0.238281,1.234375,-1.046875
12324516000,0.999390,-0.005676,-0.001526,-0.033813,0.367188,-0.042969,0.410156
12345462000,0.999329,-0.005920,-0.002625,-0.035217,0.902344,0.238281,-0.359375
12365631000,0.999207,-0.006897,-0.003845,-0.038635,-0.230469,-0.472656,-0.242188
12385770000,0.999084,-0.005615,-0.005493,-0.042358,-1.789062,-1.460938,1.441406
12413616000,0.998962,-0.002258,-0.006714,-0.045044,0.527344,0.789062,-1.046875
12426244000,0.998718,-0.004700,-0.009033,-0.049377,-0.457031,-0.320312,-0.050781
12446405000,0.998657,-0.005188,-0.010681,-0.050171,0.355469,-0.160156,-0.050781
12476270000,0.998596,-0.006897,-0.012451,-0.050842,-0.257812,-0.167969,0.070312
12485923000,0.998596,-0.006653,-0.012756,-0.050842,-0.464844,-0.003906,-0.121094
12506579000,0.998596,-0.006165,-0.012512,-0.050781,0.324219,0.023438,-0.417969
12526109000,0.998657,-0.005188,-0.011719,-0.050049,-0.234375,-0.183594,0.003906
12556031000,0.998840,-0.002808,-0.009766,-0.047363,-0.386719,0.007812,-0.152344
12565605000,0.998901,-0.001587,-0.008606,-0.045837,-0.296875,0.070312,-0.121094
12586130000,0.999084,0.001709,-0.005981,-0.042419,-0.394531,0.097656,0.035156
12606178000,0.999207,0.005127,-0.003601,-0.039062,-0.835938,0.296875,-0.003906
12625833000,0.999329,0.007080,-0.001709,-0.035889,-0.988281,-0.054688,0.109375
12645788000,0.999390,0.007996,-0.000610,-0.033691,-0.730469,-0.085938,0.070312
12675098000,0.999451,0.007568,-0.000183,-0.032288,-0.890625,0.027344,-0.082031
12685363000,0.999451,0.007324,0.000000,-0.031982,-0.890625,0.105469,-0.082031
12705708000,0.999512,0.007019,0.000732,-0.031128,-0.078125,0.042969,-0.042969
12725782000,0.999512,0.006470,0.002319,-0.029541,-0.023438,-0.101562,0.070312
12756044000,0.999634,0.006714,0.004395,-0.026367,-0.160156,0.058594,-0.082031
12765274000,0.999634,0.006714,0.004333,-0.025879,-0.035156,0.128906,-0.121094
12785977000,0.999634,0.006592,0.003723,-0.025391,0.382812,-0.027344,-0.042969
12806032000,0.999634,0.006653,0.003113,-0.025024,0.484375,-0.101562,0.035156
12826125000,0.999634,0.006409,0.003296,-0.025024,0.906250,0.050781,0.035156
12850335000,0.999634,0.006165,0.004211,-0.025452,0.523438,0.171875,-0.003906
12865534000,0.999634,0.006348,0.005371,-0.026184,0.046875,0.136719,-0.003906
12885477000,0.999573,0.005859,0.006775,-0.027344,0.015625,0.019531,-0.003906
12905380000,0.999512,0.006104,0.007874,-0.028809,-0.066406,-0.164062,0.148438
12934877000,0.999451,0.007568,0.007812,-0.030884,-0.339844,-0.246094,-0.464844
12949260000,0.999451,0.007690,0.007751,-0.031494,0.769531,0.503906,-0.042969
12965211000,0.999451,0.007996,0.007690,-0.031677,0.617188,-0.234375,-0.226562
12985355000,0.999451,0.007263,0.008240,-0.030884,0.109375,0.179688,-0.074219
13005670000,0.999512,0.004822,0.009155,-0.029968,-0.257812,-0.148438,0.195312
13034853000,0.999512,0.001282,0.010071,-0.028687,-1.230469,0.136719,-0.226562
13044166000,0.999512,-0.000061,0.010437,-0.028442,-0.839844,0.054688,0.117188
13065638000,0.999573,-0.001404,0.010742,-0.028137,-0.984375,0.000000,0.003906
13094285000,0.999512,-0.001892,0.011169,-0.028259,-0.058594,0.039062,-0.035156
13104127000,0.999512,-0.002197,0.011414,-0.028259,-0.058594,0.000000,0.003906
13127122000,0.999512,-0.002869,0.011902,-0.028259,-0.042969,-0.031250,0.042969
13145414000,0.999512,-0.003906,0.012634,-0.028198,-0.070312,0.023438,0.085938
13174351000,0.999573,-0.003845,0.012756,-0.026428,-0.277344,-0.488281,-0.296875
13184133000,0.999573,-0.004028,0.012878,-0.025635,0.335938,-0.417969,0.050781
13205370000,0.999634,-0.006287,0.014160,-0.023438,-0.011719,0.156250,0.355469
13225394000,0.999634,-0.007202,0.014282,-0.021729,1.046875,-0.179688,0.203125
13253986000,0.999634,-0.008728,0.015320,-0.020386,0.074219,-0.097656,-0.910156
13264149000,0.999634,-0.009460,0.015686,-0.020142,0.726562,0.027344,0.433594
13285391000,0.999634,-0.010620,0.016357,-0.020020,0.007812,0.457031,0.203125
13313375000,0.999573,-0.011780,0.017273,-0.020142,-0.046875,0.113281,0.125000
13324549000,0.999573,-0.012024,0.017578,-0.020569,-0.152344,0.121094,-0.144531
13353317000,0.999573,-0.012146,0.018188,-0.020752,1.085938,-0.179688,-0.296875
13373141000,0.999512,-0.012390,0.018555,-0.020874,-0.093750,0.089844,0.125000
13393444000,0.999512,-0.012512,0.018738,-0.020874,0.175781,0.019531,-0.066406
13416531000,0.999512,-0.012634,0.018921,-0.020813,-0.007812,-0.054688,0.011719
13434205000,0.999512,-0.013000,0.019531,-0.020996,0.078125,0.144531,0.242188
13453157000,0.999451,-0.013672,0.020386,-0.021484,0.015625,0.226562,-0.066406
13473369000,0.999451,-0.013855,0.020630,-0.022095,0.300781,-0.261719,-0.257812
13494515000,0.999451,-0.013855,0.020264,-0.022766,-0.007812,-0.023438,-0.027344
13517841000,0.999451,-0.013611,0.019592,-0.023010,-0.292969,-0.378906,-0.058594
13532944000,0.999512,-0.013184,0.018433,-0.022583,0.039062,-0.269531,-0.171875
13553297000,0.999512,-0.012390,0.017334,-0.021545,0.007812,-0.238281,0.394531
13572563000,0.999573,-0.012329,0.016968,-0.020996,-0.160156,0.546875,0.355469
13593186000,0.999573,-0.012390,0.017029,-0.020996,0.031250,-0.027344,-0.105469
13612446000,0.999573,-0.012451,0.017029,-0.021057,-0.007812,0.011719,0.125000
13632310000,0.999573,-0.012451,0.017029,-0.020996,-0.007812,-0.019531,0.011719
13653016000,0.999573,-0.012451,0.016968,-0.020996,-0.007812,-0.027344,0.050781
13672085000,0.999573,-0.012451,0.016968,-0.020996,-0.007812,0.011719,0.050781
13692256000,0.999573,-0.012512,0.016968,-0.020996,-0.007812,-0.027344,0.011719
13712164000,0.999573,-0.012451,0.016968,-0.020996,-0.007812,-0.027344,0.050781
13733328000,0.999573,-0.012451,0.016968,-0.020996,-0.007812,0.011719,0.011719
13751825000,0.999573,-0.012451,0.016968,-0.021057,-0.007812,0.011719,-0.027344
13772728000,0.999573,-0.012451,0.016968,-0.020996,-0.007812,-0.027344,0.011719
13792304000,0.999573,-0.012451,0.016968,-0.021057,-0.007812,0.011719,0.011719
13812492000,0.999573,-0.012451,0.016968,-0.021057,-0.007812,-0.027344,0.011719
13837283000,0.999573,-0.012451,0.016968,-0.021057,0.000000,-0.019531,0.011719
13852170000,0.999573,-0.012451,0.016968,-0.021057,0.000000,-0.027344,0.011719
13871805000,0.999573,-0.012512,0.016968,-0.021057,0.000000,-0.027344,0.011719
13891939000,0.999573,-0.012451,0.016968,-0.021057,0.000000,-0.027344,0.011719
13915127000,0.999573,-0.012451,0.016968,-0.021057,0.000000,-0.027344,0.050781
13931993000,0.999573,-0.012451,0.016968,-0.021057,0.000000,0.027344,-0.050781
13952331000,0.999573,-0.012451,0.016968,-0.021057,0.000000,0.027344,-0.011719
13971613000,0.999573,-0.012390,0.016968,-0.021057,0.000000,-0.011719,-0.011719
13996675000,0.999573,-0.012390,0.016968,-0.021057,0.000000,0.027344,0.027344
14011587000,0.999573,-0.012390,0.016968,-0.021057,0.000000,-0.011719,-0.011719
14031763000,0.999573,-0.012451,0.016968,-0.021057,0.000000,-0.011719,-0.011719
14051697000,0.999573,-0.012390,0.016968,-0.021057,0.000000,0.027344,0.027344
14071864000,0.999573,-0.012390,0.016968,-0.021057,0.000000,0.027344,-0.011719
14091182000,0.999573,-0.012390,0.016968,-0.021057,0.000000,-0.011719,0.027344
14111925000,0.999573,-0.012390,0.016968,-0.021057,0.000000,-0.011719,-0.011719
14131609000,0.999573,-0.012390,0.016968,-0.021057,0.000000,-0.011719,-0.011719
14155675000,0.999573,-0.012390,0.016968,-0.021057,0.000000,0.027344,-0.011719
14170976000,0.999573,-0.012390,0.016968,-0.021057,0.000000,0.027344,-0.011719
14191763000,0.999573,-0.012390,0.016968,-0.021057,0.000000,-0.011719,0.027344
14211069000,0.999573,-0.012390,0.016968,-0.021057,0.000000,-0.011719,0.027344
14233204000,0.999573,-0.012451,0.016968,-0.021057,0.000000,0.027344,-0.011719
14257997000,0.999573,-0.012451,0.016968,-0.021057,0.000000,0.027344,-0.011719
14270819000,0.999573,-0.012390,0.016968,-0.021057,0.000000,0.027344,-0.011719
14290742000,0.999573,-0.012451,0.016968,-0.021057,0.000000,-0.011719,-0.011719
14310804000,0.999573,-0.012451,0.016968,-0.021057,0.000000,0.027344,-0.011719
14333383000,0.999573,-0.012451,0.016968,-0.021057,0.000000,0.019531,-0.011719
14350826000,0.999573,-0.012451,0.016968,-0.021057,0.000000,-0.019531,-0.003906
14371316000,0.999573,-0.012451,0.016968,-0.021057,0.000000,-0.019531,-0.003906
14390375000,0.999573,-0.012451,0.016968,-0.021057,0.000000,-0.019531,-0.003906
14415379000,0.999573,-0.012512,0.016968,-0.021057,0.000000,-0.019531,-0.003906
14431017000,0.999573,-0.012512,0.016968,-0.021057,0.000000,-0.011719,-0.003906
14450592000,0.999573,-0.012451,0.016968,-0.021057,0.000000,-0.011719,-0.003906
14471129000,0.999573,-0.012512,0.016968,-0.021057,0.000000,-0.011719,-0.003906
14490578000,0.999573,-0.012512,0.016968,-0.021118,0.000000,-0.011719,-0.042969
14510021000,0.999573,-0.012512,0.016968,-0.021118,0.000000,-0.019531,-0.003906
14530196000,0.999573,-0.012512,0.016968,-0.021057,0.000000,-0.019531,-0.003906
14551630000,0.999573,-0.012512,0.016968,-0.021118,0.000000,-0.019531,-0.042969
14569577000,0.999573,-0.012573,0.016968,-0.021057,0.000000,-0.003906,0.035156
14589915000,0.999573,-0.012573,0.016968,-0.021057,-0.039062,-0.011719,-0.003906
14609677000,0.999573,-0.012573,0.016907,-0.021057,0.000000,0.027344,0.035156
14630895000,0.999573,-0.012512,0.016907,-0.021057,0.000000,0.027344,-0.003906
14654137000,0.999573,-0.012512,0.016907,-0.021057,0.000000,-0.011719,-0.042969
14669833000,0.999573,-0.012512,0.016907,-0.021057,0.000000,0.027344,-0.003906
14689577000,0.999573,-0.012573,0.016907,-0.021057,0.000000,0.019531,0.035156
14710406000,0.999573,-0.012573,0.016907,-0.021057,0.000000,0.019531,-0.003906
14734624000,0.999573,-0.012573,0.016907,-0.021057,0.000000,0.019531,-0.003906
14750022000,0.999573,-0.012573,0.016907,-0.021057,0.000000,0.019531,-0.003906
14769552000,0.999573,-0.012573,0.016907,-0.021057,0.000000,-0.019531,-0.003906
14789603000,0.999573,-0.012573,0.016846,-0.021057,0.000000,-0.019531,-0.003906
14812957000,0.999573,-0.012573,0.016846,-0.021057,0.039062,0.011719,0.042969
14829635000,0.999573,-0.012634,0.016846,-0.021057,0.000000,0.019531,-0.003906
14849132000,0.999573,-0.012573,0.016846,-0.021057,0.000000,-0.019531,0.035156
14868764000,0.999573,-0.012634,0.016846,-0.021057,0.000000,0.019531,-0.003906
14890088000,0.999573,-0.012573,0.016846,-0.020996,0.000000,0.019531,-0.003906
14908814000,0.999573,-0.012573,0.016846,-0.020996,0.000000,0.019531,-0.003906
14929200000,0.999573,-0.012573,0.016846,-0.021057,0.000000,-0.027344,-0.003906
14949312000,0.999573,-0.012573,0.016846,-0.020996,0.000000,0.019531,-0.003906
14975249000,0.999573,-0.012573,0.016846,-0.020996,0.000000,-0.019531,-0.003906
14989143000,0.999573,-0.012573,0.016846,-0.020996,0.000000,0.019531,-0.003906
15009378000,0.999573,-0.012573,0.016846,-0.020996,0.000000,-0.019531,-0.003906
15028835000,0.999573,-0.012573,0.016846,-0.020996,0.000000,-0.019531,-0.003906
15052519000,0.999573,-0.012573,0.016846,-0.020996,0.039062,0.019531,-0.003906
15068680000,0.999573,-0.012573,0.016846,-0.020996,0.039062,0.019531,-0.003906
15089127000,0.999573,-0.012573,0.016846,-0.020996,0.000000,-0.019531,-0.003906
15108405000,0.999573,-0.012573,0.016846,-0.020996,0.000000,-0.019531,0.035156
15128921000,0.999573,-0.012573,0.016846,-0.020996,0.000000,-0.019531,-0.042969
15148711000,0.999573,-0.012573,0.016846,-0.020996,0.000000,-0.019531,-0.003906
15173758000,0.999573,-0.012573,0.016846,-0.020996,0.000000,0.019531,-0.042969
15188570000,0.999573,-0.012573,0.016846,-0.020996,0.000000,0.019531,-0.003906
15207978000,0.999573,-0.012573,0.016846,-0.020996,0.000000,-0.019531,-0.003906
15227965000,0.999573,-0.012573,0.016846,-0.020996,0.000000,0.019531,-0.003906
15249333000,0.999573,-0.012573,0.016846,-0.020996,0.000000,0.019531,-0.003906
15272596000,0.999573,-0.012573,0.016846,-0.020996,0.000000,-0.019531,-0.042969
15288361000,0.999573,-0.012573,0.016846,-0.020996,0.039062,-0.019531,-0.003906
15308410000,0.999573,-0.012573,0.016846,-0.020996,0.000000,-0.019531,-0.003906
15327524000,0.999573,-0.012573,0.016846,-0.020996,0.000000,0.019531,0.035156
15351991000,0.999573,-0.012573,0.016846,-0.020996,0.000000,0.019531,0.035156
15373101000,0.999573,-0.012573,0.016846,-0.020996,0.000000,-0.019531,-0.003906
15387942000,0.999573,-0.012573,0.016846,-0.020996,0.000000,-0.019531,-0.003906
15418042000,0.999573,-0.012573,0.016846,-0.020996,0.000000,-0.019531,-0.003906
15429959000,0.999573,-0.012573,0.016846,-0.020996,0.000000,-0.019531,-0.003906
15447500000,0.999573,-0.012573,0.016846,-0.020996,0.000000,-0.019531,-0.003906
15467463000,0.999573,-0.012573,0.016846,-0.020996,0.000000,0.019531,-0.003906
15487485000,0.999573,-0.012573,0.016846,-0.020996,0.000000,-0.019531,-0.003906
15517842000,0.999573,-0.012573,0.016846,-0.020996,0.000000,-0.019531,0.035156
15527205000,0.999573,-0.012573,0.016846,-0.020996,-0.007812,-0.019531,-0.003906
15546952000,0.999573,-0.012573,0.016846,-0.020996,-0.007812,-0.019531,-0.003906
15567431000,0.999573,-0.012573,0.016846,-0.020996,0.031250,-0.019531,-0.003906
15597634000,0.999573,-0.012573,0.016846,-0.020996,-0.007812,-0.019531,-0.003906
15612282000,0.999573,-0.012573,0.016846,-0.020996,-0.007812,-0.019531,-0.003906
15626991000,0.999573,-0.012573,0.016846,-0.020996,-0.007812,-0.019531,-0.003906
15647611000,0.999573,-0.012573,0.016846,-0.020996,-0.007812,-0.019531,0.035156
15667087000,0.999573,-0.012573,0.016846,-0.020996,-0.007812,0.027344,-0.003906
15696460000,0.999573,-0.012573,0.016846,-0.020996,-0.007812,-0.011719,-0.003906
15706686000,0.999573,-0.012573,0.016846,-0.020996,-0.007812,-0.011719,-0.003906
15727506000,0.999573,-0.012573,0.016846,-0.020996,-0.007812,-0.011719,-0.003906
15756787000,0.999573,-0.012573,0.016846,-0.020996,-0.007812,0.027344,0.035156
15766800000,0.999573,-0.012573,0.016846,-0.020996,-0.007812,-0.011719,-0.003906
15788130000,0.999573,-0.012573,0.016846,-0.020996,0.000000,0.027344,-0.003906
15806565000,0.999573,-0.012573,0.016846,-0.020996,0.000000,0.027344,-0.003906
15836988000,0.999573,-0.012573,0.016846,-0.020996,0.000000,-0.011719,-0.003906
15846179000,0.999573,-0.012573,0.016846,-0.020996,0.000000,0.027344,0.035156
15866956000,0.999573,-0.012573,0.016846,-0.020996,0.000000,-0.011719,-0.003906
15886578000,0.999573,-0.012573,0.016846,-0.020996,-0.007812,0.019531,-0.003906
15916267000,0.999573,-0.012573,0.016846,-0.020996,-0.007812,-0.019531,-0.003906
15926312000,0.999573,-0.012573,0.016846,-0.020996,-0.007812,-0.019531,-0.003906
15947000000,0.999573,-0.012573,0.016846,-0.020996,0.031250,0.019531,-0.003906
15966506000,0.999573,-0.012573,0.016846,-0.020996,-0.007812,-0.019531,-0.003906
15987939000,0.999573,-0.012573,0.016846,-0.020996,-0.007812,-0.019531,0.035156
16006165000,0.999573,-0.012573,0.016846,-0.020996,-0.007812,-0.011719,-0.003906
16026597000,0.999573,-0.012573,0.016846,-0.020996,-0.007812,0.019531,-0.003906
16046233000,0.999573,-0.012573,0.016846,-0.020996,-0.007812,-0.019531,-0.011719
16066534000,0.999573,-0.012573,0.016846,-0.020996,-0.007812,0.019531,0.027344
16086575000,0.999573,-0.012573,0.016846,-0.020996,0.031250,-0.019531,-0.011719
16110263000,0.999573,-0.012573,0.016846,-0.020996,-0.007812,0.019531,-0.011719
16126314000,0.999573,-0.012573,0.016846,-0.020996,0.031250,0.019531,-0.011719
16145949000,0.999573,-0.012573,0.016846,-0.020996,-0.007812,0.019531,-0.011719
16166242000,0.999573,-0.012573,0.016846,-0.020996,-0.007812,-0.019531,0.027344
16195470000,0.999573,-0.012573,0.016846,-0.020996,-0.007812,-0.019531,0.027344
16211372000,0.999573,-0.012573,0.016846,-0.020996,0.031250,-0.019531,-0.011719
16225924000,0.999573,-0.012573,0.016846,-0.020996,-0.007812,0.019531,0.027344
16246001000,0.999573,-0.012573,0.016846,-0.020996,-0.007812,-0.019531,0.027344
16265960000,0.999573,-0.012573,0.016846,-0.020996,-0.007812,0.019531,-0.011719
16295052000,0.999573,-0.012573,0.016846,-0.020996,-0.007812,-0.019531,0.027344
16305369000,0.999573,-0.012573,0.016846,-0.020996,-0.007812,-0.019531,0.027344
16325912000,0.999573,-0.012634,0.016846,-0.020996,0.031250,-0.019531,0.027344
16345759000,0.999573,-0.012634,0.016907,-0.020996,-0.007812,0.019531,-0.011719
16367345000,0.999573,-0.013123,0.017151,-0.020935,-0.007812,-0.019531,-0.011719
16389621000,0.999573,-0.013123,0.017212,-0.020935,-0.007812,-0.046875,-0.097656
16406413000,0.999573,-0.013000,0.017212,-0.020935,0.000000,-0.011719,0.019531
16425911000,0.999573,-0.013123,0.017273,-0.020935,0.000000,0.027344,0.054688
16445770000,0.999573,-0.013062,0.017334,-0.020935,0.000000,-0.011719,0.019531
16465405000,0.999573,-0.013000,0.017395,-0.020874,0.000000,0.027344,0.019531
16485328000,0.999573,-0.012817,0.017273,-0.020874,0.000000,0.027344,0.019531
16515052000,0.999573,-0.012268,0.017151,-0.020874,-0.007812,-0.054688,-0.058594
16525286000,0.999573,-0.012207,0.017029,-0.020813,0.031250,-0.027344,-0.097656
16554480000,0.999573,-0.012268,0.016907,-0.018982,0.472656,-0.515625,0.101562
16564790000,0.999634,-0.012146,0.016602,-0.018311,0.082031,-0.285156,-0.394531
16585978000,0.999695,-0.010559,0.015259,-0.017578,0.640625,-0.171875,-0.585938
16605342000,0.999695,-0.009766,0.013672,-0.017090,0.394531,-0.195312,-0.167969
16626976000,0.999756,-0.010986,0.013367,-0.015442,0.578125,0.609375,-0.550781
16650210000,0.999817,-0.008789,0.011414,-0.012878,0.304688,-0.085938,-0.472656
16665723000,0.999878,-0.006714,0.008789,-0.010742,1.128906,0.433594,-0.058594
16685717000,0.999939,-0.001404,0.007019,-0.009888,0.800781,0.292969,0.593750
16705032000,0.999939,0.006958,0.005188,-0.010254,0.875000,0.269531,0.515625
16725662000,0.999878,0.010559,0.002991,-0.012146,0.492188,0.335938,-0.210938
16745525000,0.999878,0.008301,0.000854,-0.014771,-1.507812,0.210938,-0.367188
16774239000,0.999756,0.006409,-0.002930,-0.020264,-0.222656,-0.246094,-0.058594
16784121000,0.999756,0.005371,-0.003845,-0.022034,-0.589844,-0.187500,-0.019531
16805482000,0.999634,0.005493,-0.005432,-0.024841,-0.300781,-0.285156,0.210938
16825429000,0.999573,0.006287,-0.006348,-0.027283,0.656250,-0.093750,-0.058594
16845557000,0.999512,0.005737,-0.006531,-0.029175,-0.203125,0.378906,-0.136719
16865191000,0.999512,0.005310,-0.006714,-0.030457,-0.546875,0.121094,-0.097656
16885617000,0.999512,0.004639,-0.007080,-0.030579,-0.585938,0.136719,-0.058594
16905400000,0.999512,0.003357,-0.007690,-0.029785,-0.332031,0.257812,-0.210938
16933626000,0.999634,0.003052,-0.007751,-0.026062,0.714844,0.328125,1.902344
16944095000,0.999695,0.003235,-0.007202,-0.024170,0.300781,0.066406,-0.058594
16965350000,0.999756,0.003845,-0.005920,-0.020508,0.195312,0.250000,-0.210938
16993788000,0.999878,0.005554,-0.003174,-0.016235,-0.308594,0.218750,0.093750
17013036000,0.999878,0.008362,-0.001404,-0.014465,-0.277344,-0.085938,0.324219
17033229000,0.999878,0.009155,-0.000122,-0.014099,-0.781250,0.019531,0.285156
17044139000,0.999878,0.009155,0.000183,-0.014038,-1.156250,-0.410156,-0.097656
17065401000,0.999878,0.009277,0.000977,-0.014160,-0.527344,-0.371094,-0.210938
17093649000,0.999817,0.009644,0.001953,-0.014587,-0.121094,0.281250,-0.019531
17114252000,0.999817,0.010071,0.002502,-0.015137,-0.875000,0.050781,-0.050781
17133108000,0.999817,0.010254,0.002747,-0.015991,-0.253906,0.074219,-0.203125
17144118000,0.999817,0.010010,0.002686,-0.016602,-0.214844,0.082031,-0.128906
17173579000,0.999817,0.008667,0.002563,-0.017761,-0.097656,-0.093750,0.027344
17192782000,0.999817,0.006836,0.003296,-0.017700,-0.097656,0.121094,0.101562
17212995000,0.999817,0.004517,0.004639,-0.017517,-0.414062,0.144531,0.140625
17224356000,0.999817,0.004639,0.005066,-0.017395,-0.558594,-0.109375,0.062500
17252815000,0.999817,0.002869,0.006714,-0.017700,-0.488281,0.250000,-0.167969
17264087000,0.999817,0.001648,0.007446,-0.018066,-0.402344,0.039062,0.062500
17292936000,0.999756,-0.001770,0.009644,-0.019897,-0.042969,-0.121094,0.101562
17312940000,0.999695,-0.003601,0.010193,-0.021301,0.011719,-0.351562,0.140625
17332667000,0.999695,-0.004700,0.010498,-0.021851,-0.316406,0.179688,0.101562
17352448000,0.999695,-0.005432,0.010681,-0.021973,-0.089844,0.117188,-0.050781
17377709000,0.999695,-0.005859,0.010803,-0.021973,-0.082031,-0.019531,0.027344
17391871000,0.999695,-0.005737,0.010620,-0.021973,-0.042969,-0.089844,0.070312
17412087000,0.999695,-0.005920,0.010742,-0.021973,-0.042969,0.132812,-0.011719
17432242000,0.999695,-0.006165,0.010925,-0.021973,-0.082031,0.027344,-0.003906
17456048000,0.999695,-0.007141,0.011230,-0.021973,-0.042969,0.148438,-0.050781
17472320000,0.999634,-0.008911,0.012024,-0.021973,0.011719,0.125000,0.027344
17492543000,0.999573,-0.012451,0.013306,-0.021912,-0.042969,0.148438,0.070312
17511943000,0.999634,-0.011658,0.013000,-0.021912,-0.218750,-0.070312,-0.886719
17535553000,0.999573,-0.012207,0.013184,-0.021912,0.011719,0.210938,-0.042969
17551697000,0.999573,-0.012085,0.013123,-0.021851,-0.062500,0.066406,0.070312
17571509000,0.999573,-0.012146,0.013184,-0.021851,-0.062500,0.027344,0.035156
17591502000,0.999573,-0.012268,0.013245,-0.021851,-0.062500,0.066406,0.035156
17615429000,0.999573,-0.012268,0.013184,-0.021851,-0.062500,-0.011719,-0.003906
17633202000,0.999573,-0.012268,0.013184,-0.021851,-0.062500,-0.011719,-0.003906
17651873000,0.999573,-0.012268,0.013245,-0.021912,-0.062500,0.027344,0.035156
17671966000,0.999573,-0.012268,0.013245,-0.021851,-0.062500,0.027344,-0.003906
17693660000,0.999573,-0.012329,0.013245,-0.021912,-0.062500,0.027344,-0.003906
17711662000,0.999573,-0.012329,0.013245,-0.021912,-0.054688,0.027344,-0.003906
17733735000,0.999573,-0.012268,0.013306,-0.021912,-0.054688,-0.011719,-0.003906
17751615000,0.999573,-0.012329,0.013306,-0.021912,-0.054688,0.027344,0.035156
17771352000,0.999573,-0.012329,0.013306,-0.021912,-0.054688,0.027344,-0.003906
17793733000,0.999573,-0.012329,0.013306,-0.021912,-0.054688,-0.011719,-0.003906
17811481000,0.999573,-0.012390,0.013306,-0.021851,-0.093750,-0.011719,0.035156
17830749000,0.999573,-0.012390,0.013306,-0.021851,-0.054688,-0.011719,-0.003906
17850864000,0.999573,-0.012390,0.013306,-0.021851,-0.046875,-0.011719,-0.003906
17874074000,0.999573,-0.012390,0.013306,-0.021851,-0.046875,0.027344,0.035156
17891793000,0.999573,-0.012329,0.013367,-0.021851,-0.007812,0.019531,-0.011719
17911101000,0.999573,-0.012390,0.013367,-0.021851,-0.007812,0.019531,-0.011719
17931118000,0.999573,-0.012390,0.013367,-0.021851,0.027344,-0.019531,0.027344
17951314000,0.999573,-0.012390,0.013367,-0.021851,0.027344,0.019531,-0.011719
17970816000,0.999573,-0.012390,0.013367,-0.021851,-0.007812,-0.019531,0.027344
17990868000,0.999573,-0.012390,0.013367,-0.021851,-0.007812,0.019531,-0.011719
18010911000,0.999573,-0.012390,0.013367,-0.021851,-0.007812,-0.019531,-0.011719
18030346000,0.999573,-0.012390,0.013367,-0.021851,-0.007812,-0.019531,-0.011719
18060484000,0.999573,-0.012390,0.013367,-0.021851,-0.007812,-0.019531,0.027344
18075294000,0.999573,-0.012329,0.013428,-0.021851,-0.007812,0.019531,0.027344
18090289000,0.999573,-0.012390,0.013428,-0.021851,0.027344,0.019531,0.027344
18110078000,0.999573,-0.012390,0.013428,-0.021851,0.027344,0.019531,-0.011719
18130663000,0.999573,-0.012390,0.013428,-0.021851,0.027344,-0.019531,-0.011719
18155346000,0.999573,-0.012451,0.013428,-0.021851,-0.007812,-0.019531,-0.011719
18170101000,0.999573,-0.012451,0.013428,-0.021851,-0.007812,-0.019531,-0.011719
18190013000,0.999573,-0.012451,0.013428,-0.021790,0.027344,-0.019531,-0.011719
18210168000,0.999573,-0.012451,0.013428,-0.021790,-0.007812,-0.019531,-0.011719
18234916000,0.999573,-0.012451,0.013428,-0.021790,-0.007812,-0.019531,-0.011719
18250133000,0.999573,-0.012451,0.013428,-0.021790,-0.007812,0.019531,-0.050781
18269949000,0.999573,-0.012451,0.013428,-0.021790,-0.007812,0.019531,0.035156
18289736000,0.999573,-0.012451,0.013428,-0.021790,-0.007812,-0.019531,-0.003906
18311875000,0.999573,-0.012451,0.013428,-0.021790,-0.007812,-0.019531,0.035156
18334089000,0.999573,-0.012451,0.013428,-0.021790,-0.007812,-0.019531,-0.003906
18349450000,0.999573,-0.012451,0.013428,-0.021790,-0.007812,-0.019531,0.035156
18369378000,0.999573,-0.012451,0.013428,-0.021790,0.027344,-0.019531,-0.042969
18390105000,0.999573,-0.012390,0.013428,-0.021790,-0.007812,-0.019531,-0.003906
18411139000,0.999573,-0.012390,0.013489,-0.021790,-0.007812,-0.019531,-0.003906
18433691000,0.999573,-0.012451,0.013428,-0.021790,-0.007812,-0.019531,-0.003906
18450591000,0.999573,-0.012451,0.013428,-0.021790,-0.007812,-0.011719,0.035156
18469445000,0.999573,-0.012451,0.013428,-0.021790,-0.007812,-0.011719,-0.003906
18489173000,0.999573,-0.012451,0.013428,-0.021790,-0.007812,0.027344,-0.003906
18519646000,0.999573,-0.012451,0.013428,-0.021729,-0.007812,0.027344,0.035156
18529638000,0.999573,-0.012451,0.013428,-0.021729,-0.007812,-0.011719,0.035156
18548934000,0.999573,-0.012451,0.013428,-0.021729,-0.007812,0.027344,0.035156
18569146000,0.999573,-0.012451,0.013428,-0.021729,-0.007812,-0.011719,-0.003906
18589252000,0.999573,-0.012451,0.013428,-0.021729,-0.007812,-0.011719,-0.003906
18608947000,0.999573,-0.012451,0.013428,-0.021729,-0.007812,-0.011719,-0.003906
18628907000,0.999573,-0.012390,0.013489,-0.021729,-0.007812,-0.019531,0.035156
18649515000,0.999573,-0.012390,0.013489,-0.021729,-0.007812,-0.019531,-0.003906
18672339000,0.999573,-0.012451,0.013489,-0.021729,-0.007812,0.019531,-0.003906
18688723000,0.999573,-0.012390,0.013489,-0.021729,0.000000,-0.019531,-0.003906
18708826000,0.999573,-0.012390,0.013489,-0.021729,0.035156,-0.027344,-0.003906
18729282000,0.999573,-0.012390,0.013489,-0.021729,0.027344,-0.027344,-0.003906
18758920000,0.999573,-0.012329,0.013489,-0.021729,-0.007812,-0.027344,-0.003906
18768578000,0.999573,-0.012329,0.013428,-0.021729,-0.007812,-0.027344,-0.003906
18788967000,0.999573,-0.012329,0.013428,-0.021729,-0.007812,-0.027344,0.035156
18808283000,0.999573,-0.012390,0.013428,-0.021729,-0.007812,-0.027344,-0.003906
18828422000,0.999573,-0.012329,0.013489,-0.021729,-0.007812,0.011719,-0.003906
18848607000,0.999573,-0.012329,0.013489,-0.021729,-0.007812,-0.027344,0.035156
18878023000,0.999573,-0.012329,0.013489,-0.021729,-0.007812,-0.027344,-0.003906
18893171000,0.999573,-0.012329,0.013489,-0.021729,-0.007812,0.011719,-0.003906
18908741000,0.999573,-0.012329,0.013489,-0.021729,0.027344,0.011719,-0.003906
18928172000,0.999573,-0.012329,0.013489,-0.021729,-0.007812,-0.027344,0.035156
18949400000,0.999573,-0.012329,0.013489,-0.021729,-0.007812,-0.027344,0.035156
18973201000,0.999573,-0.012329,0.013489,-0.021729,0.027344,0.011719,0.035156
18987702000,0.999573,-0.012329,0.013489,-0.021729,-0.007812,-0.027344,-0.003906
19007474000,0.999573,-0.012329,0.013489,-0.021729,-0.007812,0.011719,0.035156
19027711000,0.999573,-0.012329,0.013489,-0.021729,-0.007812,-0.027344,-0.011719
19052733000,0.999573,-0.012329,0.013489,-0.021729,0.027344,0.011719,-0.003906
19071852000,0.999573,-0.012329,0.013489,-0.021729,0.027344,-0.027344,0.035156
19087322000,0.999573,-0.012329,0.013489,-0.021729,0.027344,0.011719,-0.003906
19107265000,0.999573,-0.012329,0.013489,-0.021729,0.027344,-0.027344,0.035156
19127054000,0.999573,-0.012329,0.013489,-0.021729,0.027344,0.011719,0.035156
19147179000,0.999573,-0.012329,0.013489,-0.021729,-0.007812,-0.027344,-0.003906
19167224000,0.999573,-0.012329,0.013489,-0.021729,-0.007812,0.019531,0.035156
19187091000,0.999573,-0.012329,0.013489,-0.021729,-0.007812,-0.019531,-0.011719
19209103000,0.999573,-0.012329,0.013489,-0.021729,-0.007812,0.019531,-0.011719
19227008000,0.999573,-0.012329,0.013489,-0.021729,0.027344,-0.019531,-0.011719
19247394000,0.999573,-0.012329,0.013489,-0.021729,-0.007812,-0.019531,0.027344
19266899000,0.999573,-0.012329,0.013489,-0.021729,-0.007812,-0.019531,0.027344
19287767000,0.999573,-0.012329,0.013489,-0.021729,-0.007812,0.019531,0.027344
19311455000,0.999573,-0.012329,0.013489,-0.021729,0.027344,0.019531,-0.011719
19326928000,0.999573,-0.012329,0.013489,-0.021729,-0.007812,-0.027344,-0.011719
19346903000,0.999573,-0.012329,0.013489,-0.021729,-0.007812,-0.027344,-0.011719
19367194000,0.999573,-0.012329,0.013489,-0.021729,-0.007812,-0.027344,0.027344
19387032000,0.999573,-0.012329,0.013489,-0.021729,-0.007812,-0.027344,-0.011719
19407027000,0.999573,-0.012329,0.013489,-0.021729,-0.007812,0.011719,-0.011719
19426798000,0.999573,-0.012329,0.013489,-0.021729,-0.007812,0.011719,0.027344
19456435000,0.999573,-0.012329,0.013489,-0.021729,0.027344,-0.027344,-0.011719
19471090000,0.999573,-0.012329,0.013489,-0.021729,-0.007812,0.011719,0.027344
19486677000,0.999573,-0.012329,0.013489,-0.021729,-0.007812,-0.027344,-0.011719
19507010000,0.999573,-0.012329,0.013489,-0.021729,0.027344,-0.027344,-0.011719
19526456000,0.999573,-0.012329,0.013489,-0.021729,-0.007812,-0.027344,0.027344
19556646000,0.999573,-0.012329,0.013489,-0.021729,-0.007812,-0.027344,-0.011719
19570459000,0.999573,-0.012329,0.013489,-0.021729,-0.007812,-0.027344,-0.011719
19586434000,0.999573,-0.012329,0.013489,-0.021729,-0.007812,-0.019531,-0.011719
19606283000,0.999573,-0.012329,0.013489,-0.021729,-0.007812,-0.019531,0.027344
19627555000,0.999573,-0.012329,0.013489,-0.021729,-0.007812,-0.019531,0.027344
19650671000,0.999573,-0.012329,0.013489,-0.021729,-0.007812,0.019531,0.027344
19666429000,0.999573,-0.012329,0.013489,-0.021729,0.027344,-0.019531,-0.011719
19686076000,0.999573,-0.012329,0.013489,-0.021729,-0.007812,0.019531,0.027344
19706092000,0.999573,-0.012329,0.013489,-0.021729,-0.007812,-0.019531,-0.011719
19736226000,0.999573,-0.012329,0.013489,-0.021729,-0.007812,0.019531,-0.011719
19749676000,0.999573,-0.012329,0.013489,-0.021729,-0.007812,-0.019531,0.027344
19766023000,0.999573,-0.012329,0.013489,-0.021729,-0.046875,-0.019531,-0.011719
19786250000,0.999573,-0.012329,0.013489,-0.021729,0.000000,0.019531,-0.011719
19806742000,0.999573,-0.012329,0.013489,-0.021729,0.000000,-0.019531,0.027344
19835419000,0.999573,-0.012329,0.013489,-0.021729,0.000000,-0.019531,0.027344
19846048000,0.999573,-0.012329,0.013489,-0.021729,0.000000,0.011719,0.027344
19866040000,0.999573,-0.012329,0.013489,-0.021729,0.035156,-0.027344,-0.011719
19895309000,0.999573,-0.012329,0.013489,-0.021729,0.000000,-0.027344,-0.011719
19916084000,0.999573,-0.012329,0.013489,-0.021729,0.000000,-0.027344,-0.011719
19925531000,0.999573,-0.012329,0.013489,-0.021729,0.000000,-0.027344,-0.011719
19945833000,0.999573,-0.012329,0.013489,-0.021729,0.000000,-0.027344,-0.011719
19966050000,0.999573,-0.012329,0.013489,-0.021729,-0.039062,0.011719,-0.011719
19985682000,0.999573,-0.012329,0.013489,-0.021729,0.000000,-0.027344,0.027344
20005802000,0.999573,-0.012329,0.013489,-0.021729,0.035156,0.011719,-0.011719
20025787000,0.999573,-0.012329,0.013489,-0.021729,0.000000,0.011719,0.027344
20054925000,0.999573,-0.012329,0.013489,-0.021729,0.000000,-0.101562,-0.050781
20064888000,0.999573,-0.012329,0.013489,-0.021729,0.035156,0.011719,0.027344
20085841000,0.999573,-0.012329,0.013489,-0.021729,0.000000,0.019531,0.062500
20105587000,0.999573,-0.012329,0.013489,-0.021729,0.000000,-0.054688,-0.003906
20126088000,0.999573,-0.012329,0.013489,-0.021729,0.000000,0.019531,-0.003906
20145410000,0.999573,-0.012329,0.013489,-0.021729,0.000000,-0.019531,0.035156
20165333000,0.999573,-0.012329,0.013489,-0.021729,0.035156,0.019531,-0.003906
20185354000,0.999573,-0.012329,0.013489,-0.021729,0.035156,-0.019531,-0.003906
20205478000,0.999573,-0.012329,0.013489,-0.021729,0.027344,-0.027344,0.035156
20225447000,0.999573,-0.012329,0.013489,-0.021729,0.027344,-0.027344,-0.003906
20245548000,0.999634,-0.012634,0.013550,-0.020996,1.171875,-0.507812,-0.042969
20265643000,0.999634,-0.012878,0.013794,-0.019470,0.351562,-0.347656,0.226562
20285148000,0.999695,-0.011780,0.013367,-0.018250,-0.339844,-0.148438,-0.121094
20305432000,0.999695,-0.011414,0.013123,-0.017334,-0.539062,-0.277344,0.035156
20330242000,0.999695,-0.012268,0.013245,-0.017090,-0.714844,0.730469,-0.082031
20345047000,0.999695,-0.012451,0.013184,-0.016968,0.164062,-0.164062,0.070312
20365456000,0.999695,-0.012695,0.013184,-0.016846,-0.062500,-0.011719,-0.003906
20385366000,0.999695,-0.013245,0.013184,-0.016602,-0.027344,0.074219,-0.042969
20414773000,0.999695,-0.014282,0.013367,-0.016235,-0.003906,0.019531,0.070312
20428911000,0.999695,-0.014404,0.013367,-0.016235,-0.109375,-0.007812,0.035156
20445321000,0.999695,-0.014465,0.013245,-0.016174,-0.148438,0.000000,-0.121094
20465415000,0.999634,-0.016113,0.013977,-0.015808,0.304688,0.000000,0.187500
20485565000,0.999573,-0.018250,0.014709,-0.015808,0.503906,-0.007812,0.914062
20513966000,0.999634,-0.017944,0.013062,-0.017273,-0.808594,-0.039062,-1.000000
20524319000,0.999634,-0.017090,0.012451,-0.017334,-0.507812,-0.613281,-0.273438
20545414000,0.999634,-0.016785,0.012207,-0.017334,-0.332031,-0.523438,0.644531
20574114000,0.999634,-0.016907,0.012024,-0.017456,-0.003906,-0.070312,-0.082031
20593792000,0.999634,-0.016357,0.011658,-0.017517,-0.011719,0.000000,-0.042969
20604343000,0.999634,-0.016113,0.011536,-0.017578,0.027344,-0.046875,0.109375
20634150000,0.999634,-0.018250,0.010986,-0.017822,0.593750,0.000000,-0.042969
20653808000,0.999634,-0.018127,0.009949,-0.016907,-0.066406,-1.402344,-0.160156
20664125000,0.999695,-0.016052,0.008240,-0.016174,0.261719,-0.949219,-1.269531
20693766000,0.999817,-0.008911,0.007751,-0.014221,1.785156,0.417969,3.289062
20714078000,0.999817,-0.007019,0.011108,-0.013123,1.542969,0.269531,-1.421875
20733461000,0.999756,-0.011475,0.011536,-0.012878,-1.199219,1.046875,-0.960938
20756003000,0.999695,-0.014526,0.013184,-0.013489,-1.726562,0.648438,0.652344
20773476000,0.999756,-0.012634,0.011963,-0.013733,-1.023438,-0.386719,-0.417969
20793470000,0.999756,-0.013184,0.012634,-0.014099,-0.578125,-0.023438,0.156250
20812943000,0.999695,-0.013489,0.012512,-0.014648,-0.101562,0.066406,-0.187500
20833566000,0.999695,-0.013611,0.012451,-0.015259,-0.265625,0.136719,0.156250
20853197000,0.999695,-0.014465,0.012756,-0.015564,-0.035156,-0.125000,0.078125
20872590000,0.999695,-0.014648,0.012878,-0.015137,-0.417969,-0.070312,0.156250
20893016000,0.999695,-0.014282,0.012878,-0.014038,-0.339844,-0.039062,0.042969
20913907000,0.999695,-0.014526,0.013062,-0.012939,0.308594,0.035156,0.156250
20937813000,0.999756,-0.015137,0.013428,-0.011719,-0.140625,0.113281,0.156250
20953023000,0.999756,-0.015747,0.013672,-0.010132,-0.125000,-0.023438,0.042969
20973081000,0.999756,-0.015320,0.013367,-0.008484,0.679688,-0.101562,-0.113281
20992760000,0.999756,-0.015869,0.013489,-0.007141,0.296875,0.167969,-0.035156
21019264000,0.999756,-0.015747,0.013428,-0.006714,0.371094,0.015625,-0.074219
21032309000,0.999756,-0.015747,0.013489,-0.007324,0.066406,0.167969,0.042969
21056139000,0.999756,-0.015259,0.013489,-0.007751,0.179688,-0.023438,-0.035156
21072700000,0.999756,-0.016602,0.013306,-0.008301,-0.515625,0.320312,0.003906
21092573000,0.999756,-0.017151,0.013062,-0.008911,1.046875,-0.347656,-0.378906
21112638000,0.999695,-0.018555,0.013062,-0.009399,-0.066406,0.097656,0.195312
21135814000,0.999695,-0.017639,0.012939,-0.009644,0.050781,-0.160156,-0.265625
21151880000,0.999756,-0.015381,0.014038,-0.010315,-0.058594,-0.812500,-0.878906
21172186000,0.999756,-0.015015,0.013550,-0.011169,-0.617188,-0.300781,-1.414062
21192686000,0.999695,-0.015015,0.013611,-0.012451,-0.664062,0.082031,-0.152344
21218768000,0.999695,-0.015015,0.013611,-0.013611,-0.699219,-0.039062,0.308594
21232805000,0.999695,-0.015198,0.013611,-0.014038,-0.808594,-0.230469,0.156250
21254813000,0.999695,-0.015137,0.013672,-0.014038,-0.269531,-0.148438,0.156250
21272591000,0.999695,-0.015076,0.013672,-0.013794,-0.617188,-0.109375,-0.152344
21291750000,0.999695,-0.015259,0.013672,-0.013428,-0.269531,-0.031250,0.042969
21312000000,0.999695,-0.015259,0.013611,-0.013306,-0.500000,0.089844,-0.035156
21331696000,0.999695,-0.015259,0.013611,-0.013306,-0.347656,0.015625,0.003906
21355179000,0.999695,-0.015259,0.013672,-0.013245,-0.003906,-0.023438,0.042969
21371502000,0.999695,-0.015198,0.013672,-0.013000,0.121094,0.015625,0.003906
21391474000,0.999695,-0.015198,0.013672,-0.012878,-0.035156,0.015625,0.042969
21411802000,0.999695,-0.015198,0.013611,-0.012573,0.121094,0.015625,-0.035156
21431613000,0.999695,-0.015259,0.013611,-0.012451,0.082031,-0.023438,0.042969
21457162000,0.999695,-0.015564,0.013672,-0.012634,0.121094,0.089844,0.156250
21471580000,0.999695,-0.015686,0.013733,-0.012695,-0.300781,0.058594,0.078125
21491768000,0.999695,-0.015747,0.013733,-0.012695,-0.492188,-0.015625,-0.035156
21510776000,0.999695,-0.015686,0.013733,-0.012695,-0.378906,0.023438,0.003906
21531780000,0.999695,-0.015686,0.013672,-0.012695,-0.109375,0.023438,0.003906
21550888000,0.999695,-0.015686,0.013611,-0.012756,-0.062500,0.058594,0.003906
21571233000,0.999695,-0.015625,0.013611,-0.012756,-0.062500,0.023438,0.042969
21590487000,0.999695,-0.015564,0.013550,-0.012878,-0.070312,0.023438,0.003906
21613895000,0.999695,-0.015503,0.013489,-0.013245,-0.187500,0.097656,0.003906
21630997000,0.999695,-0.015442,0.013428,-0.013794,-0.109375,0.050781,0.003906
21651383000,0.999695,-0.015381,0.013367,-0.014160,0.082031,-0.023438,0.003906
21670319000,0.999695,-0.015381,0.013367,-0.014099,-0.070312,0.042969,0.003906
21691883000,0.999695,-0.015381,0.013428,-0.014099,-0.070312,0.042969,0.042969
21714895000,0.999695,-0.015381,0.013428,-0.014099,-0.132812,0.042969,-0.035156
21730830000,0.999695,-0.015381,0.013428,-0.014160,-0.062500,0.082031,0.078125
21750664000,0.999695,-0.015320,0.013489,-0.014160,-0.027344,0.007812,0.042969
21770232000,0.999695,-0.015259,0.013672,-0.014160,-0.054688,0.042969,0.003906
21790250000,0.999695,-0.015259,0.013855,-0.014282,0.019531,0.082031,0.117188
21814295000,0.999695,-0.015259,0.013672,-0.014282,-0.132812,-0.031250,-0.226562
21830803000,0.999695,-0.015259,0.013550,-0.014282,0.023438,-0.046875,-0.136719
21850169000,0.999695,-0.015198,0.013611,-0.014282,0.058594,-0.007812,0.054688
21871047000,0.999695,-0.015198,0.013672,-0.014282,0.023438,0.027344,-0.019531
21890138000,0.999695,-0.015198,0.013672,-0.014343,0.023438,0.027344,-0.019531
21910491000,0.999695,-0.015198,0.013672,-0.014343,0.023438,-0.007812,0.019531
21932121000,0.999695,-0.015198,0.013672,-0.014343,0.015625,-0.007812,0.019531
21952403000,0.999695,-0.015198,0.013672,-0.014343,0.015625,0.027344,-0.019531
21970206000,0.999695,-0.015198,0.013672,-0.014343,0.015625,-0.007812,-0.019531
21990007000,0.999695,-0.015198,0.013672,-0.014343,0.015625,-0.007812,0.019531
22011066000,0.999695,-0.015198,0.013672,-0.014404,0.015625,-0.007812,-0.058594
22029819000,0.999695,-0.015198,0.013672,-0.014404,0.015625,-0.007812,-0.019531
22049444000,0.999695,-0.015198,0.013672,-0.014404,0.015625,-0.007812,-0.019531
22069653000,0.999695,-0.015198,0.013672,-0.014404,0.015625,-0.007812,0.019531
22089465000,0.999695,-0.015198,0.013672,-0.014404,0.015625,-0.007812,-0.019531
22111685000,0.999695,-0.015198,0.013672,-0.014404,0.015625,-0.007812,-0.011719
22134842000,0.999695,-0.015198,0.013672,-0.014404,0.007812,-0.007812,-0.011719
22149704000,0.999695,-0.015198,0.013611,-0.014404,0.007812,0.027344,0.027344
22169398000,0.999695,-0.015137,0.013611,-0.014404,0.007812,0.027344,0.027344
22189150000,0.999695,-0.015137,0.013611,-0.014404,0.007812,0.027344,-0.011719
22209877000,0.999695,-0.015137,0.013611,-0.014404,0.007812,-0.007812,-0.011719
22232999000,0.999695,-0.015137,0.013611,-0.014404,0.042969,-0.007812,-0.011719
22249225000,0.999695,-0.015137,0.013672,-0.014404,0.007812,-0.007812,-0.011719
22269579000,0.999695,-0.015137,0.013611,-0.014404,0.007812,0.027344,-0.011719
22289864000,0.999695,-0.015137,0.013672,-0.014404,0.007812,-0.015625,-0.011719
22319428000,0.999695,-0.015137,0.013672,-0.014343,0.035156,-0.015625,0.027344
22329643000,0.999695,-0.015137,0.013672,-0.014343,0.000000,-0.015625,-0.011719
22349289000,0.999695,-0.015137,0.013672,-0.014343,0.000000,-0.007812,-0.011719
22368668000,0.999695,-0.015137,0.013672,-0.014343,0.000000,-0.007812,-0.011719
22389173000,0.999695,-0.015076,0.013611,-0.014343,0.000000,-0.015625,-0.011719
22410983000,0.999695,-0.015076,0.013611,-0.014343,-0.039062,-0.015625,-0.011719
22428736000,0.999695,-0.015076,0.013611,-0.014343,0.035156,0.019531,-0.011719
22449144000,0.999695,-0.015076,0.013611,-0.014343,0.000000,-0.015625,-0.011719
22469574000,0.999695,-0.015076,0.013611,-0.014343,0.035156,0.019531,-0.003906
22498621000,0.999695,-0.015076,0.013611,-0.014343,0.000000,0.019531,0.035156
22513765000,0.999695,-0.015076,0.013611,-0.014343,0.000000,-0.015625,-0.003906
22528371000,0.999695,-0.015076,0.013611,-0.014343,0.000000,-0.015625,-0.003906
22548598000,0.999695,-0.015076,0.013672,-0.014343,0.000000,-0.023438,0.035156
22568833000,0.999695,-0.015076,0.013672,-0.014343,0.000000,-0.023438,-0.003906
22598496000,0.999695,-0.015076,0.013672,-0.014404,0.000000,-0.015625,-0.003906
22608753000,0.999695,-0.015137,0.013672,-0.014404,0.000000,-0.015625,-0.003906
22628235000,0.999695,-0.015137,0.013672,-0.014404,0.000000,-0.015625,-0.003906
22650307000,0.999695,-0.015076,0.013672,-0.014404,-0.039062,0.027344,-0.003906
22668578000,0.999695,-0.015076,0.013733,-0.014404,-0.039062,-0.007812,-0.003906
22689334000,0.999695,-0.015076,0.013733,-0.014404,0.000000,-0.007812,-0.003906
22712181000,0.999695,-0.015076,0.013733,-0.014404,0.000000,0.027344,-0.003906
22727882000,0.999695,-0.015076,0.013733,-0.014465,0.000000,0.019531,-0.003906
22747831000,0.999695,-0.015076,0.013733,-0.014465,0.000000,-0.015625,0.035156
22768606000,0.999695,-0.015076,0.013733,-0.014465,0.000000,0.011719,0.035156
22791353000,0.999695,-0.015076,0.013794,-0.014404,0.000000,0.011719,-0.003906
22808511000,0.999695,-0.015076,0.013733,-0.014404,0.000000,-0.023438,0.035156
22827306000,0.999695,-0.015076,0.013733,-0.014404,0.000000,0.011719,-0.011719
22847999000,0.999695,-0.015015,0.013733,-0.014404,0.000000,0.011719,-0.011719
22877689000,0.999695,-0.015015,0.013794,-0.014404,0.000000,-0.023438,-0.011719
22887695000,0.999695,-0.015015,0.013794,-0.014404,0.000000,0.011719,-0.011719
22907341000,0.999695,-0.015015,0.013794,-0.014404,0.000000,-0.023438,-0.011719
22927743000,0.999695,-0.015015,0.013794,-0.014404,0.000000,0.011719,0.027344
22947401000,0.999695,-0.015015,0.013794,-0.014404,0.035156,0.011719,0.027344
22977293000,0.999695,-0.015015,0.013794,-0.014404,-0.039062,0.011719,-0.050781
22991590000,0.999695,-0.015015,0.013794,-0.014404,0.000000,-0.023438,-0.011719
23007246000,0.999695,-0.015076,0.013794,-0.014404,0.007812,0.003906,0.027344
23027583000,0.999695,-0.015015,0.013855,-0.014343,0.007812,-0.031250,-0.011719
23046992000,0.999695,-0.015015,0.013855,-0.014404,0.042969,-0.031250,-0.011719
23067542000,0.999695,-0.015076,0.013855,-0.014343,0.007812,-0.031250,0.027344
23087275000,0.999695,-0.015076,0.013855,-0.014343,0.007812,0.011719,-0.011719
23107648000,0.999695,-0.015015,0.013855,-0.014343,0.000000,0.011719,-0.011719
23127128000,0.999695,-0.015015,0.013855,-0.014404,-0.039062,-0.023438,-0.011719
23148448000,0.999695,-0.014954,0.013855,-0.014404,0.000000,-0.023438,-0.011719
23176415000,0.999695,-0.014954,0.013855,-0.014404,0.000000,0.011719,-0.011719
23187081000,0.999695,-0.014954,0.013855,-0.014404,0.000000,-0.023438,-0.011719
23206737000,0.999695,-0.014893,0.013855,-0.014404,0.000000,0.011719,-0.011719
23227199000,0.999695,-0.014893,0.013855,-0.014404,-0.039062,0.011719,-0.011719
23246808000,0.999695,-0.014954,0.013855,-0.014404,0.000000,-0.023438,-0.011719
23267447000,0.999695,-0.014893,0.013916,-0.014404,0.000000,-0.023438,0.027344
23286523000,0.999695,-0.014893,0.013916,-0.014404,0.000000,0.011719,-0.011719
23306667000,0.999695,-0.014893,0.013916,-0.014343,0.000000,0.011719,0.027344
23326687000,0.999695,-0.014893,0.013916,-0.014343,0.000000,0.011719,-0.011719
23356476000,0.999695,-0.014893,0.013916,-0.014343,0.000000,-0.023438,0.027344
23371071000,0.999695,-0.014893,0.013916,-0.014343,0.000000,-0.023438,-0.011719
23386490000,0.999695,-0.014893,0.013916,-0.014343,0.000000,0.011719,0.027344
23406896000,0.999695,-0.014832,0.013916,-0.014343,0.000000,0.011719,-0.011719
23426406000,0.999695,-0.014893,0.013916,-0.014343,0.000000,-0.023438,-0.011719
23451828000,0.999695,-0.014893,0.013916,-0.014343,0.000000,-0.023438,0.027344
23467893000,0.999695,-0.014893,0.013916,-0.014343,-0.039062,0.011719,-0.011719
23486335000,0.999695,-0.014893,0.013916,-0.014404,0.000000,0.011719,-0.011719
23506006000,0.999695,-0.014893,0.013916,-0.014404,0.000000,-0.023438,0.027344
23526185000,0.999695,-0.014893,0.013916,-0.014404,0.007812,0.011719,0.027344
23546124000,0.999695,-0.014893,0.013916,-0.014343,0.007812,0.011719,-0.050781
23566226000,0.999695,-0.014893,0.013916,-0.014343,0.007812,-0.023438,-0.011719
23587222000,0.999695,-0.014893,0.013916,-0.014343,0.007812,-0.023438,-0.011719
23610496000,0.999695,-0.014893,0.013916,-0.014343,0.007812,0.019531,0.027344
23625873000,0.999695,-0.014954,0.013916,-0.014343,0.007812,0.011719,0.027344
23645720000,0.999695,-0.014954,0.013916,-0.014343,0.007812,-0.023438,-0.011719
23665826000,0.999695,-0.014954,0.013916,-0.014404,0.007812,-0.023438,-0.011719
23695476000,0.999695,-0.014893,0.013916,-0.014404,0.042969,0.011719,-0.011719
23705647000,0.999695,-0.014893,0.013977,-0.014404,0.007812,0.011719,-0.011719
23725719000,0.999695,-0.014893,0.013916,-0.014465,0.007812,0.011719,0.027344
23745739000,0.999695,-0.014893,0.013916,-0.014465,0.007812,-0.023438,-0.011719
23778205000,0.999695,-0.014893,0.013916,-0.014404,0.000000,0.019531,0.027344
23795082000,0.999695,-0.014954,0.013916,-0.014404,0.035156,-0.015625,0.027344
23804991000,0.999695,-0.014893,0.013916,-0.014404,0.000000,0.019531,-0.011719
23825704000,0.999695,-0.014954,0.013916,-0.014404,0.000000,-0.015625,-0.011719
23845833000,0.999695,-0.014954,0.013916,-0.014465,0.000000,-0.015625,0.027344
23866430000,0.999695,-0.014954,0.013977,-0.014404,0.000000,0.019531,-0.011719
23890920000,0.999695,-0.014954,0.013977,-0.014465,0.000000,-0.015625,-0.042969
23905413000,0.999695,-0.014954,0.013977,-0.014404,0.000000,-0.015625,-0.003906
23925368000,0.999695,-0.014893,0.013977,-0.014404,0.000000,0.019531,0.035156
23954079000,0.999695,-0.014893,0.013977,-0.014404,0.000000,-0.015625,-0.003906
23964199000,0.999695,-0.014893,0.013977,-0.014404,0.000000,0.019531,-0.003906
23985407000,0.999695,-0.014893,0.013977,-0.014404,0.000000,0.019531,0.035156
24005368000,0.999695,-0.014893,0.013977,-0.014404,0.000000,-0.015625,-0.003906
24025551000,0.999695,-0.014893,0.013977,-0.014404,0.000000,-0.015625,0.035156
24045365000,0.999695,-0.014893,0.013977,-0.014404,0.000000,-0.015625,-0.003906
24073853000,0.999695,-0.014893,0.013977,-0.014404,0.000000,0.019531,0.035156
24089268000,0.999695,-0.014893,0.013977,-0.014404,0.000000,-0.015625,0.035156
24105260000,0.999695,-0.014893,0.013977,-0.014404,0.000000,-0.015625,-0.003906
24125337000,0.999695,-0.014893,0.013977,-0.014404,0.000000,0.019531,0.035156
24154462000,0.999695,-0.014893,0.013977,-0.014404,0.000000,0.019531,-0.003906
24164881000,0.999695,-0.014893,0.013977,-0.014404,0.000000,0.019531,-0.003906
24192032000,0.999695,-0.014893,0.013977,-0.014404,0.000000,-0.015625,-0.003906
24205057000,0.999695,-0.014893,0.013977,-0.014404,0.000000,0.019531,0.027344
24236338000,0.999695,-0.014893,0.013977,-0.014404,0.000000,-0.015625,-0.011719
24253131000,0.999695,-0.014893,0.013977,-0.014404,-0.039062,-0.015625,-0.011719
24264128000,0.999695,-0.014893,0.013977,-0.014404,0.000000,0.019531,-0.003906
24293670000,0.999695,-0.014893,0.013977,-0.014404,0.000000,0.019531,-0.003906
24304349000,0.999695,-0.014893,0.013977,-0.014404,0.000000,-0.015625,-0.003906
24332926000,0.999695,-0.014893,0.013977,-0.014404,-0.039062,0.019531,0.035156
24352940000,0.999695,-0.014893,0.013977,-0.014404,0.007812,-0.015625,0.035156
24373049000,0.999695,-0.014893,0.013977,-0.014404,0.007812,0.019531,0.035156
24384161000,0.999695,-0.014893,0.013977,-0.014404,0.007812,0.011719,-0.003906
24413412000,0.999695,-0.014893,0.013977,-0.014404,0.007812,0.011719,-0.003906
24433980000,0.999695,-0.014893,0.013977,-0.014404,0.007812,0.011719,0.035156
24453413000,0.999695,-0.014893,0.013977,-0.014404,0.007812,0.011719,0.035156
24464115000,0.999695,-0.014893,0.013977,-0.014404,0.007812,-0.023438,-0.011719
24493345000,0.999695,-0.014893,0.013977,-0.014404,0.007812,0.011719,-0.011719
24512950000,0.999695,-0.014893,0.013977,-0.014404,-0.031250,-0.023438,-0.011719
24532836000,0.999695,-0.014893,0.013977,-0.014404,0.007812,-0.023438,-0.003906
24552876000,0.999695,-0.014893,0.013977,-0.014404,0.007812,-0.023438,-0.003906
24578459000,0.999695,-0.014893,0.013977,-0.014404,0.007812,-0.023438,-0.003906
24594439000,0.999695,-0.014893,0.013977,-0.014404,0.007812,-0.023438,-0.003906
24612616000,0.999695,-0.014893,0.013977,-0.014404,0.007812,-0.015625,0.035156
24632771000,0.999695,-0.014893,0.013977,-0.014404,0.007812,-0.015625,-0.003906
24655310000,0.999695,-0.014893,0.013977,-0.014404,0.007812,0.019531,-0.042969
24672610000,0.999695,-0.014893,0.013977,-0.014404,0.007812,-0.015625,-0.003906
24693450000,0.999695,-0.014893,0.013977,-0.014404,0.007812,0.019531,-0.003906
24711929000,0.999695,-0.014893,0.013977,-0.014404,0.007812,0.019531,0.035156
24733366000,0.999695,-0.014893,0.013977,-0.014404,0.007812,0.019531,-0.003906
24752152000,0.999695,-0.014893,0.013977,-0.014404,0.007812,0.019531,-0.003906
24771706000,0.999695,-0.014893,0.013977,-0.014404,0.007812,0.019531,-0.003906
24792612000,0.999695,-0.014893,0.013977,-0.014404,0.007812,0.019531,-0.003906
24811710000,0.999695,-0.014893,0.013977,-0.014404,0.007812,0.019531,-0.003906
24834463000,0.999695,-0.014893,0.013977,-0.014404,0.007812,0.019531,0.035156
24852231000,0.999695,-0.014893,0.013977,-0.014404,0.007812,-0.023438,0.035156
24872181000,0.999695,-0.014893,0.014038,-0.014404,0.082031,-0.140625,0.109375
24891684000,0.999695,-0.014893,0.013977,-0.014404,0.007812,0.089844,0.035156
24911623000,0.999695,-0.014893,0.013977,-0.014404,-0.031250,0.050781,-0.042969
24931249000,0.999695,-0.014893,0.013977,-0.014404,0.007812,0.011719,-0.003906
24951574000,0.999695,-0.014893,0.013977,-0.014404,0.007812,-0.023438,-0.003906
24971664000,0.999695,-0.014893,0.013977,-0.014465,0.007812,-0.023438,0.035156
24991954000,0.999695,-0.014893,0.013977,-0.014465,-0.031250,0.011719,-0.003906
25012116000,0.999695,-0.014954,0.013916,-0.014465,0.007812,-0.062500,-0.003906
25035289000,0.999695,-0.014954,0.013916,-0.014404,0.007812,-0.023438,0.035156
25051731000,0.999695,-0.014954,0.013916,-0.014404,0.042969,-0.101562,0.035156
25070962000,0.999695,-0.014893,0.014038,-0.014404,0.042969,-0.062500,-0.003906
25091707000,0.999695,-0.014954,0.014099,-0.014404,0.113281,0.011719,0.101562
25116490000,0.999695,-0.015259,0.014160,-0.014587,1.140625,0.050781,-0.011719
25136212000,0.999634,-0.015808,0.014404,-0.014832,2.152344,0.019531,0.218750
25150997000,0.999634,-0.015259,0.015686,-0.015869,0.082031,0.000000,0.292969
25171455000,0.999573,-0.015320,0.017029,-0.017151,0.335938,0.019531,-0.320312
25190853000,0.999573,-0.015137,0.016602,-0.017700,0.679688,0.000000,-0.550781
25221565000,0.999634,-0.014465,0.015930,-0.017822,0.105469,-0.046875,0.562500
25233722000,0.999573,-0.014404,0.017395,-0.018005,-0.394531,0.058594,0.218750
25250836000,0.999512,-0.014771,0.020386,-0.018799,0.964844,-0.015625,-1.738281
25271007000,0.999451,-0.013611,0.023132,-0.018127,-0.160156,-2.546875,0.453125
25290726000,0.999512,-0.012817,0.022888,-0.017578,2.804688,0.542969,-1.308594
25314564000,0.999512,-0.013306,0.022217,-0.017334,0.453125,0.832031,-2.535156
25330946000,0.999573,-0.013062,0.020081,-0.017334,-0.183594,0.726562,-0.847656
25350648000,0.999573,-0.013733,0.018433,-0.017578,0.394531,-0.011719,0.179688
25370390000,0.999573,-0.013672,0.018188,-0.017822,0.617188,-0.562500,0.253906
25390739000,0.999573,-0.014099,0.017517,-0.018311,-0.468750,0.089844,0.332031
25420803000,0.999573,-0.013916,0.016663,-0.018799,-0.953125,-0.171875,0.332031
25435752000,0.999573,-0.013733,0.016113,-0.018799,-1.113281,0.011719,-0.242188
25450779000,0.999634,-0.013916,0.015564,-0.018616,-0.816406,0.042969,0.101562
25470381000,0.999634,-0.013977,0.015076,-0.018250,-0.140625,-0.062500,-0.089844
25490250000,0.999634,-0.013855,0.015015,-0.018250,-0.109375,0.160156,0.753906
25513039000,0.999634,-0.013367,0.014771,-0.018616,0.082031,-0.109375,0.062500
25529881000,0.999634,-0.013550,0.014526,-0.019470,-0.195312,0.535156,-0.742188
25549949000,0.999573,-0.014648,0.015686,-0.020813,-1.269531,0.980469,1.632812
25570042000,0.999512,-0.014893,0.015503,-0.022217,-0.433594,0.183594,-1.730469
25589916000,0.999512,-0.014954,0.015137,-0.022949,-0.250000,-0.156250,0.378906
25609834000,0.999512,-0.015198,0.014893,-0.022827,-0.371094,0.066406,-0.195312
25639663000,0.999512,-0.015259,0.014160,-0.022400,0.339844,0.000000,-0.273438
25654180000,0.999512,-0.015503,0.013672,-0.022339,0.179688,0.105469,-0.160156
25669498000,0.999573,-0.014893,0.013245,-0.022461,-0.250000,0.000000,0.492188
25689683000,0.999573,-0.014099,0.012756,-0.022766,-0.753906,-0.015625,0.109375
25709368000,0.999573,-0.014221,0.012634,-0.023132,-0.609375,0.050781,0.226562
25734319000,0.999573,-0.014038,0.012634,-0.023254,-0.457031,-0.101562,-0.195312
25749052000,0.999573,-0.014221,0.012695,-0.023193,-0.800781,0.089844,0.148438
25769445000,0.999573,-0.014160,0.012573,-0.023193,-0.726562,-0.023438,-0.160156
25788994000,0.999573,-0.014160,0.012573,-0.023193,-0.187500,0.011719,-0.042969
25811591000,0.999573,-0.014160,0.012512,-0.023254,-0.113281,0.050781,0.035156
25828890000,0.999573,-0.014099,0.012512,-0.023254,-0.148438,0.011719,0.035156
25849574000,0.999573,-0.014099,0.012512,-0.023254,-0.148438,0.011719,0.035156
25869379000,0.999573,-0.014099,0.012512,-0.023254,-0.156250,0.011719,-0.003906
25889466000,0.999573,-0.014038,0.012512,-0.023193,-0.156250,0.003906,-0.003906
25909076000,0.999573,-0.014099,0.012512,-0.023193,-0.121094,-0.031250,0.035156
25933942000,0.999573,-0.014099,0.012573,-0.023193,-0.140625,0.011719,0.035156
25948583000,0.999573,-0.013977,0.012512,-0.023254,-0.140625,-0.101562,-0.042969
25968657000,0.999573,-0.013977,0.012512,-0.023254,-0.113281,0.042969,0.035156
25988629000,0.999573,-0.013977,0.012573,-0.023254,-0.140625,0.042969,0.035156
26009010000,0.999573,-0.013977,0.012634,-0.023254,-0.140625,0.003906,-0.003906
26039395000,0.999573,-0.013977,0.012573,-0.023254,-0.140625,0.003906,-0.003906
26048652000,0.999573,-0.013977,0.012573,-0.023254,-0.140625,0.003906,0.035156
26068893000,0.999573,-0.013977,0.012512,-0.023254,-0.105469,0.003906,0.035156
26089115000,0.999573,-0.013977,0.012573,-0.023254,-0.105469,0.003906,-0.003906
26109025000,0.999573,-0.013977,0.012573,-0.023254,0.027344,-0.031250,-0.011719
26128307000,0.999573,-0.013977,0.012573,-0.023254,0.027344,0.003906,0.027344
26148418000,0.999573,-0.013977,0.012573,-0.023254,-0.007812,0.003906,0.027344
26168147000,0.999573,-0.013977,0.012573,-0.023315,0.027344,0.003906,-0.011719
26199017000,0.999573,-0.013916,0.012512,-0.023315,-0.007812,0.003906,0.027344
26211504000,0.999573,-0.013916,0.012512,-0.023315,0.027344,0.003906,-0.011719
26228025000,0.999573,-0.013916,0.012512,-0.023254,0.027344,0.003906,-0.011719
26248102000,0.999573,-0.013916,0.012512,-0.023315,-0.007812,0.003906,-0.011719
26268149000,0.999573,-0.013916,0.012573,-0.023315,0.027344,0.003906,0.027344
26298943000,0.999573,-0.013916,0.012573,-0.023315,-0.007812,0.003906,-0.011719
26307868000,0.999573,-0.013916,0.012573,-0.023315,-0.007812,-0.031250,-0.011719
26327955000,0.999573,-0.013916,0.012512,-0.023315,-0.007812,0.003906,-0.011719
26347915000,0.999573,-0.013916,0.012512,-0.023315,-0.007812,0.003906,-0.050781
26371090000,0.999573,-0.013916,0.012512,-0.023315,0.019531,0.003906,-0.011719
26387409000,0.999573,-0.013916,0.012512,-0.023376,0.019531,0.003906,0.027344
26407939000,0.999573,-0.013916,0.012512,-0.023376,0.019531,-0.031250,-0.003906
26438869000,0.999573,-0.013916,0.012512,-0.023376,-0.015625,-0.031250,0.035156
26447684000,0.999573,-0.013916,0.012512,-0.023376,-0.015625,0.003906,0.035156
26468013000,0.999573,-0.013977,0.012512,-0.023376,0.019531,0.003906,-0.011719
26487373000,0.999573,-0.013916,0.012512,-0.023376,-0.007812,0.003906,-0.011719
26507128000,0.999573,-0.013977,0.012512,-0.023376,0.019531,0.003906,0.027344
26527511000,0.999573,-0.013977,0.012512,-0.023376,-0.015625,0.003906,0.027344
26547069000,0.999573,-0.013916,0.012512,-0.023376,0.011719,0.003906,-0.011719
26567096000,0.999573,-0.013916,0.012512,-0.023376,0.011719,0.003906,-0.011719
26586971000,0.999573,-0.013977,0.012512,-0.023376,-0.023438,0.003906,0.027344
26607151000,0.999573,-0.013916,0.012512,-0.023376,-0.023438,0.003906,-0.011719
26627127000,0.999573,-0.013977,0.012512,-0.023438,-0.023438,0.003906,-0.011719
26657609000,0.999573,-0.013977,0.012512,-0.023376,-0.023438,-0.031250,-0.011719
26666694000,0.999573,-0.013977,0.012451,-0.023376,-0.023438,0.003906,0.027344
26687220000,0.999573,-0.013977,0.012512,-0.023376,-0.023438,-0.031250,0.027344
26707586000,0.999573,-0.014038,0.012451,-0.023376,0.011719,0.003906,-0.011719
26737057000,0.999573,-0.014038,0.012512,-0.023376,-0.023438,0.003906,-0.011719
26753463000,0.999573,-0.014038,0.012451,-0.023376,0.011719,0.003906,-0.011719
26766894000,0.999573,-0.014038,0.012512,-0.023376,-0.023438,-0.031250,0.027344
26787021000,0.999573,-0.014038,0.012512,-0.023376,0.011719,0.003906,-0.011719
26807061000,0.999573,-0.014038,0.012512,-0.023376,0.011719,-0.031250,0.027344
26836804000,0.999573,-0.014038,0.012512,-0.023376,0.011719,0.003906,-0.011719
26852820000,0.999573,-0.014038,0.012512,-0.023376,-0.023438,-0.031250,-0.011719
26866960000,0.999573,-0.014038,0.012512,-0.023376,-0.023438,0.003906,-0.011719
26886710000,0.999573,-0.013977,0.012512,-0.023376,-0.015625,0.003906,0.027344
26906865000,0.999573,-0.013977,0.012573,-0.023376,0.019531,0.003906,0.027344
26926758000,0.999573,-0.013977,0.012573,-0.023376,0.019531,0.003906,0.027344
26946389000,0.999573,-0.013977,0.012573,-0.023376,-0.015625,0.003906,-0.011719
26976284000,0.999573,-0.013977,0.012573,-0.023376,-0.015625,0.003906,0.027344
26986575000,0.999573,-0.013977,0.012573,-0.023376,-0.015625,0.003906,-0.011719
27006801000,0.999573,-0.013977,0.012573,-0.023376,-0.015625,0.003906,-0.011719
27026506000,0.999573,-0.013977,0.012573,-0.023376,-0.015625,0.003906,-0.011719
27056384000,0.999573,-0.013977,0.012573,-0.023376,-0.015625,0.003906,0.027344
27066099000,0.999573,-0.013977,0.012634,-0.023376,0.019531,0.003906,0.027344
27086485000,0.999573,-0.013977,0.012634,-0.023376,-0.015625,0.003906,0.027344
27116674000,0.999573,-0.013916,0.012634,-0.023315,0.019531,0.003906,-0.011719
27129833000,0.999573,-0.013977,0.012634,-0.023315,-0.015625,-0.031250,-0.011719
27146120000,0.999573,-0.013977,0.012695,-0.023376,-0.015625,0.003906,0.027344
27166306000,0.999573,-0.013916,0.012634,-0.023376,-0.015625,0.003906,0.027344
27186091000,0.999573,-0.013916,0.012695,-0.023376,0.019531,0.003906,0.027344
27206056000,0.999573,-0.013977,0.012695,-0.023376,-0.015625,-0.031250,0.027344
27226018000,0.999573,-0.013977,0.012695,-0.023376,0.019531,0.003906,-0.011719
27251138000,0.999573,-0.014038,0.012695,-0.023376,-0.015625,-0.031250,0.027344
27265884000,0.999573,-0.013977,0.012695,-0.023376,-0.015625,0.003906,-0.011719
27285746000,0.999573,-0.013977,0.012695,-0.023376,-0.015625,0.003906,0.027344
27305828000,0.999573,-0.014038,0.012695,-0.023376,-0.015625,0.003906,0.027344
27325748000,0.999573,-0.014038,0.012695,-0.023438,-0.015625,0.003906,-0.011719
27355619000,0.999573,-0.014038,0.012695,-0.023438,-0.015625,0.003906,0.027344
27365422000,0.999573,-0.014038,0.012695,-0.023438,0.019531,-0.031250,-0.011719
27385749000,0.999573,-0.014038,0.012695,-0.023438,0.019531,0.003906,0.027344
27405749000,0.999573,-0.014038,0.012695,-0.023438,-0.015625,0.003906,-0.011719
27425743000,0.999573,-0.014038,0.012695,-0.023376,0.019531,0.003906,0.027344
27445781000,0.999573,-0.014038,0.012695,-0.023376,0.019531,0.003906,0.027344
27465826000,0.999573,-0.014038,0.012695,-0.023376,-0.015625,0.003906,-0.011719
27494924000,0.999573,-0.013977,0.012695,-0.023376,-0.015625,0.003906,-0.011719
27505028000,0.999573,-0.013977,0.012695,-0.023438,0.019531,0.003906,0.027344
27525746000,0.999573,-0.014038,0.012756,-0.023376,0.019531,0.003906,0.027344
27545406000,0.999573,-0.013977,0.012756,-0.023376,0.019531,0.003906,-0.011719
27576552000,0.999573,-0.013977,0.012695,-0.023376,-0.015625,-0.003906,-0.011719
27584683000,0.999573,-0.013977,0.012756,-0.023376,0.019531,-0.003906,0.027344
27614828000,0.999573,-0.013977,0.012756,-0.023376,-0.015625,-0.003906,-0.019531
27624552000,0.999573,-0.013977,0.012756,-0.023376,-0.015625,-0.003906,-0.019531
27645404000,0.999573,-0.013977,0.012756,-0.023376,-0.015625,-0.003906,-0.011719
27667244000,0.999573,-0.013977,0.012756,-0.023376,-0.015625,-0.003906,-0.011719
27694339000,0.999573,-0.013977,0.012756,-0.023376,-0.015625,-0.003906,-0.011719
27704129000,0.999573,-0.014038,0.012756,-0.023376,-0.015625,-0.003906,-0.011719
27725379000,0.999573,-0.014038,0.012756,-0.023376,-0.015625,-0.003906,-0.011719
27745481000,0.999573,-0.013977,0.012756,-0.023376,0.019531,-0.003906,0.027344
27773900000,0.999573,-0.013977,0.012756,-0.023315,-0.015625,-0.003906,-0.011719
27789598000,0.999573,-0.013977,0.012756,-0.023315,0.019531,-0.003906,0.027344
27805040000,0.999573,-0.013977,0.012756,-0.023376,-0.015625,0.035156,0.027344
27826142000,0.999573,-0.013977,0.012756,-0.023376,-0.015625,-0.003906,-0.011719
27845414000,0.999573,-0.013977,0.012817,-0.023376,0.019531,-0.003906,-0.011719
27866152000,0.999573,-0.013916,0.012817,-0.023376,-0.015625,-0.003906,0.027344
27894108000,0.999573,-0.013977,0.012756,-0.023376,-0.015625,-0.003906,0.027344
27908587000,0.999573,-0.013977,0.012756,-0.023376,-0.015625,-0.039062,0.027344
27925189000,0.999573,-0.013977,0.012817,-0.023376,-0.015625,-0.003906,-0.011719
27945387000,0.999573,-0.013916,0.012817,-0.023376,0.019531,-0.003906,-0.011719
27975063000,0.999573,-0.013977,0.012817,-0.023376,-0.015625,-0.003906,0.027344
27993762000,0.999573,-0.013977,0.012817,-0.023376,0.019531,-0.003906,0.027344
28010121000,0.999573,-0.013977,0.012817,-0.023376,-0.015625,-0.003906,-0.011719
28025047000,0.999573,-0.013977,0.012817,-0.023376,-0.015625,-0.003906,-0.011719
28057326000,0.999573,-0.013977,0.012817,-0.023376,-0.015625,-0.003906,-0.011719
28072999000,0.999573,-0.013977,0.012756,-0.023376,-0.015625,0.074219,0.027344
28095941000,0.999573,-0.013977,0.012756,-0.023376,-0.015625,-0.078125,-0.050781
28118346000,0.999573,-0.013977,0.012756,-0.023376,-0.015625,-0.003906,0.027344
28134030000,0.999573,-0.013977,0.012756,-0.023376,-0.015625,-0.003906,-0.019531
28153033000,0.999573,-0.013977,0.012756,-0.023376,0.019531,-0.039062,-0.019531
28173238000,0.999573,-0.013977,0.012756,-0.023376,0.019531,-0.039062,-0.019531
28193068000,0.999573,-0.013977,0.012756,-0.023376,-0.015625,-0.003906,-0.019531
28217551000,0.999573,-0.013916,0.012756,-0.023376,-0.015625,-0.003906,0.019531
28233173000,0.999573,-0.013977,0.012756,-0.023376,0.019531,-0.003906,-0.011719
28253749000,0.999573,-0.013977,0.012695,-0.023376,0.019531,-0.078125,-0.011719
28273142000,0.999573,-0.013916,0.012756,-0.023376,-0.054688,0.035156,-0.011719
28292924000,0.999573,-0.013977,0.012756,-0.023376,0.019531,0.035156,0.027344
28316967000,0.999573,-0.013977,0.012817,-0.023376,-0.015625,-0.003906,-0.011719
28332088000,0.999573,-0.013977,0.012878,-0.023376,0.019531,-0.003906,-0.011719
28352877000,0.999573,-0.014038,0.012939,-0.023438,0.519531,0.113281,-0.011719
28372135000,0.999573,-0.014038,0.013000,-0.022949,3.644531,-0.187500,0.062500
28392892000,0.999573,-0.014099,0.013184,-0.022400,2.488281,-0.109375,0.253906
28412251000,0.999573,-0.014099,0.013794,-0.022766,0.332031,0.042969,0.371094
28437959000,0.999512,-0.014038,0.013855,-0.023804,-0.277344,0.195312,0.062500
28452356000,0.999512,-0.013672,0.013428,-0.025208,0.164062,-0.070312,-0.625000
28472868000,0.999451,-0.013428,0.013428,-0.026855,0.683594,-0.039062,0.562500
28492966000,0.999451,-0.013794,0.013550,-0.027466,0.890625,-0.078125,0.179688
28516912000,0.999451,-0.013794,0.013428,-0.027710,-0.496094,-0.003906,0.027344
28532374000,0.999390,-0.013367,0.013489,-0.028564,-1.152344,0.234375,0.132812
28552374000,0.999390,-0.013123,0.013306,-0.029724,-1.039062,0.152344,-0.136719
28574988000,0.999329,-0.012939,0.013123,-0.031311,-1.046875,-0.070312,-0.328125
28597157000,0.999268,-0.013184,0.013184,-0.032532,-0.488281,0.035156,0.484375
28611906000,0.999268,-0.013123,0.012939,-0.033325,-0.878906,-0.117188,-0.050781
28631916000,0.999268,-0.013000,0.012695,-0.034485,-0.574219,-0.078125,-0.625000
28651543000,0.999207,-0.012939,0.012756,-0.034851,-0.734375,0.226562,0.410156
28675894000,0.999268,-0.013000,0.012634,-0.034363,-0.617188,-0.078125,0.253906
28691811000,0.999268,-0.013245,0.012634,-0.033752,-1.238281,-0.003906,-0.203125
28711804000,0.999268,-0.012939,0.012390,-0.033447,-1.429688,-0.078125,-0.128906
28733776000,0.999268,-0.013062,0.012512,-0.033386,-1.699219,0.226562,0.179688
28751557000,0.999268,-0.013000,0.012451,-0.033386,-1.093750,-0.156250,-0.089844
28772166000,0.999268,-0.013000,0.012451,-0.033386,-0.210938,-0.039062,-0.089844
28792971000,0.999268,-0.013062,0.012512,-0.033386,-0.097656,-0.003906,-0.011719
28812125000,0.999329,-0.012939,0.012451,-0.032715,1.050781,-0.195312,0.062500
28837773000,0.999329,-0.013062,0.012329,-0.031677,0.515625,-0.078125,-0.050781
28851144000,0.999329,-0.012878,0.012207,-0.031128,-0.058594,0.113281,-0.011719
28871405000,0.999329,-0.013000,0.012085,-0.031860,-0.863281,0.187500,-0.242188
28891531000,0.999268,-0.013000,0.011902,-0.033142,-0.832031,0.187500,0.101562
28915454000,0.999268,-0.012939,0.011658,-0.034058,-0.949219,-0.386719,-0.011719
28931142000,0.999268,-0.012939,0.011658,-0.033997,-0.183594,-0.046875,-0.050781
28951021000,0.999268,-0.012878,0.011658,-0.033997,-0.218750,-0.046875,-0.050781
28970550000,0.999268,-0.012878,0.011658,-0.033997,-0.183594,-0.011719,0.027344
28990619000,0.999268,-0.012878,0.011597,-0.034058,-0.218750,-0.011719,-0.011719
29014732000,0.999268,-0.012817,0.011597,-0.034058,-0.218750,-0.011719,-0.011719
29031439000,0.999268,-0.012817,0.011536,-0.034058,-0.183594,0.027344,0.027344
29050819000,0.999268,-0.012817,0.011536,-0.034058,-0.191406,0.027344,0.027344
29070455000,0.999268,-0.012878,0.011536,-0.034058,-0.226562,0.027344,0.027344
29091008000,0.999268,-0.012817,0.011475,-0.034058,-0.152344,-0.011719,-0.011719
29115178000,0.999268,-0.012817,0.011536,-0.034058,-0.191406,-0.046875,-0.011719
29130198000,0.999268,-0.012756,0.011475,-0.034058,-0.113281,-0.011719,0.027344
29150257000,0.999268,-0.012817,0.011536,-0.034058,-0.105469,0.218750,0.218750
29170312000,0.999268,-0.012756,0.011597,-0.034058,-0.144531,0.027344,0.062500
29190419000,0.999268,-0.012817,0.011597,-0.034058,-0.218750,-0.046875,-0.050781
29214503000,0.999268,-0.012756,0.011536,-0.034058,-0.210938,0.027344,-0.011719
29230270000,0.999268,-0.012756,0.011536,-0.034058,-0.175781,0.066406,0.062500
29249694000,0.999268,-0.012695,0.011536,-0.034119,-0.175781,-0.011719,0.027344
29269980000,0.999268,-0.012695,0.011597,-0.034119,-0.175781,0.027344,0.027344
29289758000,0.999268,-0.012695,0.011536,-0.034058,-0.175781,-0.011719,-0.011719
29309689000,0.999268,-0.012634,0.011536,-0.034058,-0.175781,-0.011719,-0.011719
29329669000,0.999268,-0.012634,0.011536,-0.034058,-0.175781,-0.011719,-0.050781
29350002000,0.999268,-0.012634,0.011536,-0.034058,-0.175781,-0.011719,-0.011719
29372370000,0.999268,-0.012634,0.011536,-0.034058,-0.175781,-0.011719,0.027344
29389265000,0.999268,-0.012634,0.011536,-0.034058,-0.167969,-0.011719,-0.011719
29409563000,0.999268,-0.012634,0.011536,-0.034058,-0.167969,-0.011719,0.027344
29429307000,0.999268,-0.012634,0.011536,-0.034058,-0.167969,-0.011719,-0.011719
29450699000,0.999268,-0.012573,0.011536,-0.034058,-0.167969,-0.011719,0.027344
29469491000,0.999268,-0.012573,0.011475,-0.034058,-0.167969,-0.011719,0.027344
29490039000,0.999268,-0.012634,0.011475,-0.034058,-0.167969,-0.046875,0.027344
29510939000,0.999268,-0.012573,0.011475,-0.034058,0.019531,-0.003906,0.027344
29530485000,0.999268,-0.012573,0.011475,-0.034058,0.019531,-0.003906,0.027344
29549788000,0.999268,-0.012573,0.011475,-0.034058,0.019531,-0.003906,0.027344
29569379000,0.999268,-0.012573,0.011475,-0.034058,-0.023438,-0.003906,-0.011719
29589739000,0.999268,-0.012573,0.011475,-0.034058,0.011719,-0.003906,-0.011719
29609822000,0.999268,-0.012634,0.011475,-0.034058,0.011719,-0.003906,-0.011719
29633068000,0.999268,-0.012634,0.011475,-0.034058,0.011719,-0.003906,-0.011719
29648882000,0.999268,-0.012634,0.011414,-0.034058,0.011719,-0.003906,-0.011719
29669255000,0.999268,-0.012634,0.011475,-0.034058,0.003906,-0.003906,-0.011719
29688752000,0.999268,-0.012634,0.011475,-0.034058,0.003906,-0.003906,0.027344
29709198000,0.999268,-0.012634,0.011414,-0.034058,0.003906,-0.003906,-0.011719
29728973000,0.999268,-0.012634,0.011414,-0.034058,0.003906,-0.003906,0.027344
29749368000,0.999268,-0.012695,0.011414,-0.034058,-0.031250,-0.003906,-0.011719
29773614000,0.999268,-0.012695,0.011414,-0.034058,0.003906,-0.003906,0.027344
29788821000,0.999268,-0.012695,0.011414,-0.034119,0.003906,-0.003906,-0.011719
29808680000,0.999268,-0.012756,0.011414,-0.034058,0.003906,-0.003906,0.027344
29829290000,0.999268,-0.012695,0.011414,-0.034119,0.003906,-0.003906,-0.011719
29852728000,0.999268,-0.012695,0.011353,-0.034058,0.003906,-0.003906,0.027344
29868651000,0.999268,-0.012695,0.011414,-0.034058,0.003906,0.035156,-0.011719
29888214000,0.999268,-0.012695,0.011414,-0.034058,0.003906,-0.003906,-0.011719
29908122000,0.999268,-0.012695,0.011414,-0.034058,-0.031250,0.035156,-0.011719
29928138000,0.999268,-0.012695,0.011414,-0.034058,0.003906,-0.003906,0.027344
29948740000,0.999268,-0.012695,0.011414,-0.034058,-0.031250,-0.003906,0.027344
29968183000,0.999268,-0.012695,0.011414,-0.034058,0.003906,-0.003906,0.027344
29987947000,0.999268,-0.012695,0.011414,-0.034058,-0.031250,-0.003906,0.027344
30008161000,0.999268,-0.012695,0.011414,-0.034058,0.003906,-0.003906,0.027344
30028293000,0.999268,-0.012695,0.011414,-0.034058,0.003906,-0.003906,-0.011719
30048357000,0.999268,-0.012695,0.011414,-0.034058,-0.031250,-0.003906,-0.011719
30067807000,0.999268,-0.012695,0.011414,-0.034058,0.003906,-0.003906,0.027344
30088022000,0.999268,-0.012695,0.011353,-0.034058,0.003906,-0.003906,-0.019531
30108024000,0.999268,-0.012695,0.011414,-0.034058,0.003906,-0.003906,0.019531
30128617000,0.999268,-0.012695,0.011414,-0.034058,0.003906,-0.003906,0.019531
30147405000,0.999268,-0.012695,0.011414,-0.034058,0.003906,-0.003906,-0.019531
30167887000,0.999268,-0.012695,0.011414,-0.034058,0.003906,-0.003906,0.019531
30187451000,0.999268,-0.012695,0.011414,-0.034058,-0.031250,-0.003906,-0.019531
30207585000,0.999268,-0.012756,0.011353,-0.034058,0.003906,-0.003906,-0.019531
30227852000,0.999268,-0.012695,0.011414,-0.034058,0.003906,-0.003906,-0.019531
30247211000,0.999268,-0.012756,0.011414,-0.034058,0.003906,0.035156,0.019531
30267102000,0.999268,-0.012756,0.011414,-0.034119,0.003906,-0.003906,-0.019531
30286999000,0.999268,-0.012756,0.011414,-0.034119,0.003906,-0.003906,0.019531
30307599000,0.999268,-0.012756,0.011414,-0.034058,0.003906,-0.003906,-0.019531
30329457000,0.999268,-0.012695,0.011414,-0.034058,0.003906,0.035156,-0.019531
30347724000,0.999268,-0.012695,0.011414,-0.034058,0.003906,-0.003906,-0.019531
30366900000,0.999268,-0.012695,0.011414,-0.034058,0.003906,-0.003906,-0.019531
30387482000,0.999268,-0.012695,0.011414,-0.034058,0.003906,-0.003906,-0.019531
30406869000,0.999268,-0.012756,0.011414,-0.034119,0.003906,-0.003906,-0.019531
30427404000,0.999268,-0.012756,0.011414,-0.034119,-0.031250,-0.003906,-0.019531
30447236000,0.999268,-0.012756,0.011414,-0.034119,0.003906,-0.003906,0.019531
30467447000,0.999268,-0.012817,0.011414,-0.034119,0.003906,-0.003906,0.019531
30487074000,0.999268,-0.012817,0.011414,-0.034119,0.003906,-0.003906,-0.019531
30506595000,0.999268,-0.012817,0.011414,-0.034119,0.003906,-0.003906,-0.019531
30528118000,0.999268,-0.012756,0.011414,-0.034119,-0.031250,-0.003906,-0.019531
30546240000,0.999268,-0.012817,0.011414,-0.034119,0.003906,-0.003906,-0.019531
31165453000,0.999268,-0.012817,0.011353,-0.034119,-0.031250,-0.003906,0.019531
31171161000,0.999268,-0.013000,0.011414,-0.034241,0.003906,-0.011719,0.027344
31180965000,0.999268,-0.013000,0.011414,-0.034241,0.003906,0.027344,-0.011719
31186607000,0.999268,-0.013000,0.011414,-0.034241,0.003906,-0.011719,0.027344
31195751000,0.999268,-0.013000,0.011414,-0.034241,0.003906,-0.011719,-0.011719
31208802000,0.999268,-0.013000,0.011414,-0.034241,0.003906,-0.011719,-0.011719
31215829000,0.999268,-0.013000,0.011414,-0.034241,0.003906,-0.011719,-0.011719
31226103000,0.999268,-0.013062,0.011414,-0.034241,0.003906,0.027344,0.027344
31235734000,0.999268,-0.013062,0.011353,-0.034180,0.003906,0.027344,0.027344
31246870000,0.999268,-0.013062,0.011353,-0.034180,0.003906,0.035156,0.027344
31260913000,0.999268,-0.013062,0.011414,-0.034180,0.003906,0.035156,-0.011719
31266703000,0.999268,-0.013062,0.011414,-0.034241,0.003906,-0.003906,0.027344
31275650000,0.999268,-0.013062,0.011414,-0.034241,0.003906,-0.003906,-0.011719
31287333000,0.999268,-0.013062,0.011414,-0.034241,0.003906,-0.003906,0.027344
31296010000,0.999268,-0.013062,0.011414,-0.034180,0.003906,-0.003906,-0.011719
31311026000,0.999268,-0.013062,0.011414,-0.034180,-0.003906,-0.003906,-0.011719
31316631000,0.999268,-0.013062,0.011414,-0.034180,-0.003906,0.035156,-0.011719
31326276000,0.999268,-0.013062,0.011414,-0.034180,-0.003906,-0.003906,-0.011719
31340283000,0.999268,-0.013062,0.011414,-0.034180,-0.003906,0.035156,-0.011719
31345337000,0.999268,-0.013062,0.011414,-0.034180,-0.039062,-0.003906,-0.011719
31356917000,0.999268,-0.013062,0.011353,-0.034241,-0.003906,-0.003906,0.027344
31369024000,0.999268,-0.013123,0.011353,-0.034241,-0.003906,-0.003906,0.027344
31375387000,0.999268,-0.013123,0.011353,-0.034241,0.035156,-0.003906,-0.011719
31390542000,0.999268,-0.013123,0.011414,-0.034241,-0.003906,-0.011719,-0.011719
31396201000,0.999268,-0.013123,0.011414,-0.034241,-0.039062,-0.011719,-0.011719
31406195000,0.999268,-0.013123,0.011414,-0.034241,-0.003906,-0.011719,-0.011719
31416341000,0.999268,-0.013123,0.011414,-0.034241,-0.003906,-0.011719,-0.011719
31426948000,0.999268,-0.013123,0.011414,-0.034241,-0.039062,-0.011719,0.027344
31435624000,0.999268,-0.013123,0.011414,-0.034241,-0.003906,-0.011719,-0.011719
31450833000,0.999268,-0.013123,0.011414,-0.034241,-0.003906,-0.011719,-0.011719
31458703000,0.999268,-0.013123,0.011414,-0.034241,-0.003906,-0.011719,0.027344
31465621000,0.999268,-0.013062,0.011414,-0.034241,-0.003906,-0.011719,-0.011719
31479198000,0.999268,-0.013062,0.011414,-0.034241,-0.003906,-0.011719,-0.011719
31484419000,0.999268,-0.013123,0.011414,-0.034241,-0.003906,-0.039062,-0.011719
31495611000,0.999268,-0.013123,0.011414,-0.034241,-0.003906,0.035156,0.062500
31505344000,0.999268,-0.013123,0.011353,-0.034241,-0.039062,-0.039062,-0.050781
31515498000,0.999268,-0.013184,0.011414,-0.034241,0.035156,0.035156,0.062500
31524820000,0.999268,-0.013123,0.011414,-0.034241,-0.039062,-0.003906,-0.011719
31540052000,0.999268,-0.013123,0.011414,-0.034302,0.035156,-0.003906,0.027344
31545255000,0.999268,-0.013123,0.011414,-0.034302,-0.039062,0.035156,-0.011719
31555197000,0.999268,-0.013062,0.011414,-0.034302,-0.003906,-0.003906,-0.011719
31565108000,0.999268,-0.013062,0.011414,-0.034302,-0.039062,0.035156,-0.011719
31580841000,0.999268,-0.013062,0.011414,-0.034302,0.035156,-0.003906,0.027344
31587341000,0.999268,-0.013123,0.011414,-0.034302,-0.039062,-0.003906,-0.011719
31595039000,0.999268,-0.013062,0.011414,-0.034302,-0.003906,-0.039062,-0.050781
31604713000,0.999268,-0.013062,0.011414,-0.034302,-0.003906,-0.078125,-0.050781
31616590000,0.999268,-0.013123,0.011414,-0.034302,-0.039062,0.074219,0.027344
31625881000,0.999268,-0.013123,0.011475,-0.034302,-0.003906,-0.039062,0.027344
31638227000,0.999268,-0.013245,0.011536,-0.034302,-0.078125,-0.003906,-0.011719
31644577000,0.999268,-0.013184,0.011475,-0.034302,0.003906,-0.039062,0.027344
31654617000,0.999268,-0.013306,0.011536,-0.034241,0.003906,0.074219,0.101562
31668091000,0.999268,-0.013428,0.011658,-0.034241,0.050781,-0.039062,-0.011719
31673963000,0.999268,-0.013550,0.011719,-0.034180,1.949219,-0.300781,0.062500
31685921000,0.999268,-0.013550,0.011780,-0.033691,3.308594,-0.714844,-0.050781
31697224000,0.999329,-0.013672,0.012085,-0.032410,3.644531,-0.562500,0.218750
31705548000,0.999390,-0.013550,0.012268,-0.030151,3.644531,-0.945312,-0.242188
31719964000,0.999451,-0.013489,0.012634,-0.027283,2.679688,-0.371094,0.101562
31725920000,0.999573,-0.013611,0.013184,-0.023560,2.140625,0.050781,0.140625
31735064000,0.999634,-0.013611,0.013611,-0.019775,1.136719,0.050781,-0.167969
31744946000,0.999634,-0.013611,0.013855,-0.018188,0.378906,1.660156,0.292969
31766823000,0.999634,-0.013306,0.013794,-0.018982,-0.132812,0.550781,0.371094
31786178000,0.999573,-0.013672,0.014282,-0.022339,-0.488281,-0.101562,0.601562
31806092000,0.999451,-0.013367,0.013794,-0.026794,-0.300781,-0.054688,-0.128906
31829913000,0.999329,-0.013611,0.013794,-0.031921,-0.273438,-0.402344,-0.320312
31845663000,0.999084,-0.013489,0.013489,-0.038940,-0.363281,0.089844,-0.089844
31867431000,0.998962,-0.013611,0.013428,-0.040710,-0.332031,-0.285156,-0.394531
31885429000,0.998901,-0.013672,0.013306,-0.043396,-1.183594,-0.140625,-0.394531
31910573000,0.998840,-0.013733,0.013367,-0.043945,-1.492188,-0.171875,0.445312
31925865000,0.998840,-0.013672,0.013367,-0.044067,-0.960938,-0.238281,0.027344
31946055000,0.998840,-0.013489,0.013245,-0.044189,-1.191406,-0.207031,0.101562
31968486000,0.998840,-0.013733,0.013367,-0.043823,-0.933594,-0.238281,-0.167969
31986538000,0.998901,-0.013672,0.013123,-0.042786,-0.585938,-0.015625,0.062500
32006030000,0.998962,-0.013733,0.013000,-0.041199,-0.011719,-0.054688,-0.128906
32030269000,0.999084,-0.013733,0.012695,-0.039062,-0.136719,-0.156250,-0.167969
32045766000,0.999146,-0.013855,0.012451,-0.036377,-0.402344,0.105469,-0.089844
32066015000,0.999268,-0.013794,0.012329,-0.033997,-0.242188,0.218750,0.062500
32086087000,0.999268,-0.013794,0.012329,-0.032654,-0.894531,0.335938,0.027344
32107399000,0.999329,-0.013733,0.012268,-0.032410,-0.671875,0.144531,-0.089844
32130336000,0.999268,-0.013672,0.012268,-0.032898,0.324219,-0.046875,-0.011719
32146511000,0.999268,-0.013733,0.012207,-0.033325,0.324219,-0.164062,0.101562
32167189000,0.999268,-0.013733,0.012207,-0.032898,0.476562,-0.046875,-0.011719
32186828000,0.999329,-0.013733,0.012085,-0.031738,-0.097656,0.066406,-0.050781
32207129000,0.999390,-0.013672,0.011902,-0.030457,-0.941406,0.257812,-0.128906
32226031000,0.999390,-0.013611,0.011841,-0.030518,-0.558594,0.375000,0.140625
32250441000,0.999329,-0.013611,0.011719,-0.031372,-0.480469,-0.085938,0.027344
32271512000,0.999329,-0.013611,0.011597,-0.031982,-0.296875,-0.199219,-0.058594
32291384000,0.999329,-0.013550,0.011597,-0.031982,-0.144531,-0.007812,0.019531
32311405000,0.999329,-0.013550,0.011597,-0.031982,-0.144531,0.027344,0.019531
32331286000,0.999329,-0.013550,0.011597,-0.031982,-0.105469,0.027344,0.019531
32351494000,0.999329,-0.013550,0.011597,-0.031982,-0.144531,-0.007812,-0.058594
32371534000,0.999329,-0.013550,0.011597,-0.031982,-0.179688,0.027344,0.019531
32391552000,0.999329,-0.013489,0.011597,-0.031982,-0.144531,0.027344,0.019531
32411679000,0.999329,-0.013489,0.011597,-0.032043,-0.144531,0.027344,0.019531
32434097000,0.999329,-0.013489,0.011597,-0.032043,-0.179688,0.066406,-0.019531
32451004000,0.999329,-0.013306,0.011536,-0.032043,-0.218750,0.066406,-0.019531
32470977000,0.999329,-0.013367,0.011414,-0.031982,-0.296875,0.058594,-0.058594
32491695000,0.999329,-0.013428,0.011475,-0.032043,-0.105469,-0.054688,0.019531
32512249000,0.999329,-0.013306,0.011414,-0.032043,-0.179688,-0.046875,-0.097656
32530821000,0.999329,-0.013367,0.011475,-0.032043,-0.144531,0.019531,0.019531
32550951000,0.999329,-0.013367,0.011414,-0.032043,-0.144531,0.097656,0.054688
32571246000,0.999329,-0.013367,0.011353,-0.032043,-0.144531,0.027344,-0.019531
32594864000,0.999329,-0.013367,0.011414,-0.032043,-0.179688,0.027344,-0.019531
32610983000,0.999329,-0.013367,0.011414,-0.032043,0.011719,0.019531,0.019531
32630733000,0.999329,-0.013428,0.011414,-0.032043,0.011719,0.019531,0.019531
32652818000,0.999329,-0.013428,0.011414,-0.032043,0.011719,0.019531,-0.019531
32671355000,0.999329,-0.013428,0.011353,-0.032043,0.011719,0.019531,0.054688
32693765000,0.999329,-0.013367,0.011353,-0.032043,0.011719,-0.019531,-0.019531
32710974000,0.999329,-0.013367,0.011353,-0.032043,-0.023438,-0.019531,-0.019531
32731066000,0.999329,-0.013428,0.011353,-0.032043,-0.023438,-0.019531,0.019531
32750590000,0.999329,-0.013367,0.011353,-0.032043,-0.031250,0.019531,0.019531
32770564000,0.999329,-0.013428,0.011353,-0.032043,0.003906,-0.019531,0.019531
32801059000,0.999329,-0.013428,0.011353,-0.032043,-0.031250,-0.019531,-0.019531
32810695000,0.999329,-0.013367,0.011353,-0.032043,0.003906,-0.019531,-0.019531
32830295000,0.999329,-0.013367,0.011353,-0.032043,-0.031250,0.019531,-0.019531
32850715000,0.999329,-0.013367,0.011353,-0.032043,0.003906,-0.019531,0.019531
32874390000,0.999329,-0.013367,0.011353,-0.032043,0.003906,-0.019531,0.019531
32890263000,0.999329,-0.013367,0.011353,-0.032043,0.003906,0.019531,-0.019531
32909838000,0.999329,-0.013367,0.011353,-0.032043,-0.031250,0.019531,-0.019531
32930472000,0.999329,-0.013367,0.011353,-0.032043,0.003906,0.019531,0.019531
32949689000,0.999329,-0.013367,0.011353,-0.031982,0.003906,-0.019531,0.019531
32969801000,0.999329,-0.013367,0.011353,-0.032043,0.003906,-0.019531,-0.019531
32991355000,0.999329,-0.013367,0.011353,-0.032043,0.003906,0.019531,-0.019531
33011828000,0.999329,-0.013367,0.011353,-0.032043,0.003906,-0.019531,0.019531
33030129000,0.999329,-0.013367,0.011353,-0.032043,0.003906,-0.019531,0.019531
33049857000,0.999329,-0.013306,0.011353,-0.031982,0.003906,0.019531,-0.011719
33069456000,0.999329,-0.013306,0.011353,-0.032043,-0.003906,-0.019531,-0.011719
33089557000,0.999329,-0.013306,0.011414,-0.032043,-0.003906,-0.019531,-0.011719
33109810000,0.999329,-0.013306,0.011353,-0.032043,-0.003906,-0.011719,-0.011719
33129668000,0.999329,-0.013306,0.011353,-0.032043,-0.003906,0.027344,0.027344
33149656000,0.999329,-0.013306,0.011414,-0.032043,-0.003906,-0.011719,-0.011719
