timestamp_ns,qw,qx,qy,qz,ax,ay,az,t_sec,dist_83a8d,dist_e05a1,dist_48e72
2662944000,0.999817,-0.015564,0.01355,-0.000244,0.003906,0.0,-0.035156,0.069241,2.72,4.97,6.1
2672345000,0.999817,-0.015564,0.013611,-0.000244,-0.03125,0.0,0.003906,0.078642,,,
2683387000,0.999817,-0.015564,0.013611,-0.000244,-0.03125,0.0,-0.035156,0.089684,,,
2692140000,0.999817,-0.015503,0.013611,-0.000244,-0.03125,0.0,0.003906,0.098437,,,
2702473000,0.999817,-0.015503,0.013611,-0.000244,0.003906,0.0,-0.035156,0.10877,,,
2712954000,0.999817,-0.015503,0.013611,-0.000183,0.003906,0.0,0.003906,0.119251,,,
2722672000,0.999817,-0.015564,0.013611,-0.000183,0.003906,0.0,0.003906,0.128969,,,
2732698000,0.999817,-0.015564,0.013611,-0.000183,-0.03125,0.0,0.003906,0.138995,,,
2742630000,0.999817,-0.015564,0.013611,-0.000244,-0.03125,0.0,0.003906,0.148927,,,
2752372000,0.999817,-0.015503,0.013611,-0.000244,0.003906,0.0,0.011719,0.158669,,,
2762295000,0.999817,-0.015503,0.013611,-0.000244,0.003906,0.0,0.011719,0.168592,,,
2771987000,0.999817,-0.015503,0.013611,-0.000244,-0.03125,0.0,0.011719,0.178284,,,
2792562000,0.999817,-0.015503,0.013611,-0.000244,-0.023438,0.0,0.011719,0.198859,,,
2812438000,0.999817,-0.015503,0.013611,-0.000244,-0.023438,0.0,0.011719,0.218735,2.67,4.98,6.09
2832393000,0.999817,-0.015442,0.013611,-0.000244,-0.023438,0.0,-0.027344,0.23869,,,
2852705000,0.999817,-0.015503,0.013611,-0.000244,-0.015625,0.0,-0.027344,0.259002,,,
2872073000,0.999817,-0.015442,0.013611,-0.000244,-0.015625,0.0,0.011719,0.27837,,,
2902704000,0.999817,-0.015442,0.013611,-0.000244,0.019531,0.0,0.011719,0.309001,,,
2911914000,0.999817,-0.015442,0.013611,-0.000244,-0.015625,0.0,0.011719,0.318211,,,
2932048000,0.999817,-0.015442,0.013672,-0.000244,0.019531,0.0,0.011719,0.338345,,,
2951602000,0.999817,-0.015442,0.013611,-0.000244,0.019531,0.035156,-0.027344,0.357899,,,
2971986000,0.999817,-0.015503,0.013611,-0.000244,-0.015625,0.0,0.011719,0.378283,,,
2992055000,0.999817,-0.015503,0.013672,-0.000244,-0.015625,0.0,0.011719,0.398352,,,
3018111000,0.999817,-0.015503,0.013611,-0.000244,-0.015625,0.0,-0.027344,0.424408,2.7,4.94,6.1
3032164000,0.999817,-0.015564,0.013611,-0.000244,0.019531,0.0,-0.027344,0.438461,,,
3052393000,0.999817,-0.015564,0.013611,-0.000244,0.019531,0.0,0.011719,0.45869,,,
3071496000,0.999817,-0.015564,0.013611,-0.000244,0.019531,0.0,0.011719,0.477793,,,
3094157000,0.999817,-0.015564,0.013611,-0.000244,-0.015625,0.0,0.011719,0.500454,,,
3115098000,0.999817,-0.015503,0.013611,-0.000244,0.019531,0.0,0.011719,0.521395,,,
3131732000,0.999817,-0.015503,0.013611,-0.000244,-0.015625,0.0,0.011719,0.538029,,,
3151675000,0.999817,-0.015503,0.013611,-0.000244,-0.015625,0.0,0.011719,0.557972,,,
3171196000,0.999817,-0.015503,0.013611,-0.000244,-0.015625,0.0,0.011719,0.577493,,,
3196023000,0.999817,-0.015503,0.013611,-0.000244,-0.015625,0.0,0.011719,0.60232,,,
3211050000,0.999817,-0.015503,0.013611,-0.000305,0.019531,0.0,0.011719,0.617347,2.68,4.98,6.12
3230769000,0.999817,-0.015503,0.013611,-0.000244,-0.015625,0.0,0.011719,0.637066,,,
3252818000,0.999817,-0.015503,0.013611,-0.000305,0.019531,0.0,-0.027344,0.659115,,,
3271491000,0.999817,-0.015503,0.013611,-0.000305,-0.015625,0.0,0.011719,0.677788,,,
3290589000,0.999817,-0.015503,0.013611,-0.000305,0.019531,0.0,0.011719,0.696886,,,
3311907000,0.999817,-0.015503,0.013611,-0.000305,0.019531,0.0,0.011719,0.718204,,,
3336250000,0.999817,-0.015503,0.01355,-0.000305,0.019531,0.0,0.011719,0.742547,,,
3351049000,0.999817,-0.015503,0.01355,-0.000305,-0.015625,0.0,0.011719,0.757346,,,
3370969000,0.999817,-0.015442,0.01355,-0.000305,-0.015625,0.0,-0.027344,0.777266,,,
3391023000,0.999817,-0.015442,0.01355,-0.000305,-0.015625,0.0,-0.027344,0.79732,,,
3412938000,0.999817,-0.015503,0.01355,-0.000305,-0.015625,0.0,-0.027344,0.819235,2.7,4.98,6.11
3430927000,0.999817,-0.015442,0.013611,-0.000305,-0.015625,0.0,0.019531,0.837224,,,
3450257000,0.999817,-0.015442,0.013611,-0.000244,0.019531,0.0,0.019531,0.856554,,,
3471089000,0.999817,-0.015442,0.013611,-0.000305,0.019531,-0.039062,0.019531,0.877386,,,
3490661000,0.999817,-0.015442,0.013611,-0.000305,-0.015625,0.0,-0.019531,0.896958,,,
3511114000,0.999817,-0.015442,0.013611,-0.000305,0.019531,0.0,-0.019531,0.917411,,,
3535212000,0.999817,-0.015442,0.013611,-0.000305,-0.015625,0.0,0.019531,0.941509,,,
3550046000,0.999817,-0.015503,0.01355,-0.000305,-0.015625,0.0,-0.019531,0.956343,,,
3570613000,0.999817,-0.015442,0.013611,-0.000305,-0.015625,0.0,0.019531,0.97691,,,
3590555000,0.999817,-0.015442,0.01355,-0.000305,0.019531,0.0,-0.019531,0.996852,,,
3619976000,0.999817,-0.015503,0.01355,-0.000305,-0.015625,0.035156,0.019531,1.026273,2.69,4.98,6.11
3630223000,0.999817,-0.015503,0.01355,-0.000305,-0.015625,0.0,0.019531,1.03652,,,
3649900000,0.999817,-0.015503,0.01355,-0.000305,-0.054688,0.0,-0.019531,1.056197,,,
3669730000,0.999817,-0.015503,0.01355,-0.000305,-0.007812,0.0,-0.019531,1.076027,,,
3699763000,0.999817,-0.015503,0.01355,-0.000305,-0.007812,0.0,0.058594,1.10606,,,
3709811000,0.999817,-0.015503,0.01355,-0.000305,0.027344,0.035156,0.019531,1.116108,,,
3729770000,0.999817,-0.015503,0.01355,-0.000305,-0.007812,0.0,-0.019531,1.136067,,,
3749379000,0.999817,-0.015503,0.01355,-0.000305,-0.007812,0.0,-0.019531,1.155676,,,
3772096000,0.999817,-0.015503,0.01355,-0.000305,-0.007812,0.0,0.019531,1.178393,,,
3789051000,0.999817,-0.015503,0.01355,-0.000305,-0.007812,0.0,0.019531,1.195348,,,
3808938000,0.999817,-0.015503,0.01355,-0.000305,-0.007812,0.0,0.019531,1.215235,2.69,4.97,6.12
3831873000,0.999817,-0.015503,0.01355,-0.000305,-0.007812,0.0,0.019531,1.23817,,,
3853548000,0.999817,-0.015503,0.01355,-0.000305,-0.007812,0.0,0.019531,1.259845,,,
3869372000,0.999817,-0.015503,0.01355,-0.000305,-0.007812,0.0,0.019531,1.275669,,,
3889453000,0.999817,-0.015503,0.01355,-0.000305,-0.007812,0.0,0.011719,1.29575,,,
3911892000,0.999817,-0.015503,0.01355,-0.000305,-0.007812,0.0,0.011719,1.318189,,,
3939150000,0.999817,-0.015503,0.01355,-0.000305,-0.007812,0.035156,0.011719,1.345447,,,
3949526000,0.999817,-0.015503,0.01355,-0.000305,-0.007812,0.0,0.011719,1.355823,,,
3968708000,0.999817,-0.015503,0.01355,-0.000305,0.027344,0.0,0.011719,1.375005,,,
3999331000,0.999817,-0.015503,0.01355,-0.000305,0.027344,0.0,0.011719,1.405628,2.68,4.98,6.1
4008486000,0.999817,-0.015503,0.01355,-0.000305,-0.007812,0.0,0.011719,1.414783,,,
4028647000,0.999817,-0.015503,0.01355,-0.000305,0.027344,0.0,0.011719,1.434944,,,
4049437000,0.999817,-0.015503,0.01355,-0.000305,-0.007812,0.0,-0.027344,1.455734,,,
4075265000,0.999817,-0.015503,0.01355,-0.000305,-0.007812,0.0,0.011719,1.481562,,,
4089774000,0.999817,-0.015503,0.01355,-0.000305,-0.007812,0.0,0.050781,1.496071,,,
4108938000,0.999817,-0.015503,0.01355,-0.000305,0.027344,0.0,0.011719,1.515235,,,
4138881000,0.999817,-0.015503,0.01355,-0.000305,-0.007812,0.0,-0.027344,1.545178,,,
4148147000,0.999817,-0.015503,0.01355,-0.000305,-0.007812,0.0,0.011719,1.554444,,,
4169106000,0.999817,-0.015503,0.01355,-0.000305,-0.007812,0.0,-0.027344,1.575403,,,
4188703000,0.999817,-0.015503,0.01355,-0.000305,-0.007812,0.0,-0.027344,1.595,,,
4218595000,0.999817,-0.015503,0.01355,-0.000305,0.027344,0.0,0.011719,1.624892,2.71,4.98,6.1
4227967000,0.999817,-0.015503,0.01355,-0.000305,0.027344,0.0,0.011719,1.634264,,,
4248272000,0.999817,-0.015503,0.01355,-0.000305,0.027344,0.0,0.011719,1.654569,,,
4267945000,0.999817,-0.015503,0.01355,-0.000305,-0.007812,0.0,0.011719,1.674242,,,
4293748000,0.999817,-0.015503,0.01355,-0.000305,-0.007812,0.0,0.011719,1.700045,,,
4307594000,0.999817,-0.015503,0.01355,-0.000305,-0.007812,0.0,0.011719,1.713891,,,
4328176000,0.999817,-0.015503,0.01355,-0.000305,0.027344,0.0,0.050781,1.734473,,,
4357638000,0.999817,-0.015503,0.01355,-0.000305,-0.015625,0.0,0.003906,1.763935,,,
4367598000,0.999817,-0.015503,0.01355,-0.000305,-0.015625,0.0,0.003906,1.773895,,,
4387523000,0.999817,-0.015503,0.01355,-0.000305,-0.015625,0.0,0.042969,1.79382,,,
4408547000,0.999817,-0.015503,0.01355,-0.000305,0.019531,0.0,0.003906,1.814844,2.67,4.94,6.12
4433162000,0.999817,-0.015503,0.01355,-0.000305,-0.015625,0.035156,0.003906,1.839459,,,
4447376000,0.999817,-0.015503,0.01355,-0.000305,0.019531,0.0,0.003906,1.853673,,,
4467251000,0.999817,-0.015503,0.01355,-0.000305,0.019531,0.0,0.003906,1.873548,,,
4497853000,0.999817,-0.015503,0.01355,-0.000305,-0.015625,0.0,0.003906,1.90415,,,
4507053000,0.999817,-0.015503,0.01355,-0.000305,-0.015625,0.0,0.003906,1.91335,,,
4528216000,0.999817,-0.015503,0.01355,-0.000305,-0.015625,0.0,0.003906,1.934513,,,
4548072000,0.999817,-0.015503,0.01355,-0.000305,-0.015625,0.0,0.003906,1.954369,,,
4577582000,0.999817,-0.015503,0.01355,-0.000305,-0.007812,0.035156,-0.035156,1.983879,,,
4587183000,0.999817,-0.015503,0.01355,-0.000305,0.027344,0.0,0.042969,1.99348,,,
4608201000,0.999817,-0.015503,0.01355,-0.000305,-0.007812,0.0,0.003906,2.014498,2.7,4.98,6.12
4637087000,0.999817,-0.015503,0.01355,-0.000305,-0.007812,0.0,0.003906,2.043384,,,
4657381000,0.999817,-0.015503,0.01355,-0.000305,-0.007812,0.0,0.003906,2.063678,,,
4666894000,0.999817,-0.015503,0.01355,-0.000305,-0.007812,0.0,0.003906,2.073191,,,
4687087000,0.999817,-0.015503,0.01355,-0.000305,-0.007812,0.0,0.003906,2.093384,,,
4707747000,0.999817,-0.015503,0.01355,-0.000305,0.027344,0.035156,0.003906,2.114044,,,
4729297000,0.999817,-0.015503,0.01355,-0.000305,0.027344,0.0,0.003906,2.135594,,,
4746975000,0.999817,-0.015503,0.01355,-0.000305,0.027344,-0.007812,0.003906,2.153272,,,
4777565000,0.999817,-0.015503,0.01355,-0.000305,-0.007812,-0.007812,-0.035156,2.183862,,,
4786276000,0.999817,-0.015503,0.01355,-0.000305,-0.007812,-0.007812,0.003906,2.192573,,,
4807004000,0.999817,-0.015503,0.01355,-0.000305,-0.007812,-0.007812,0.003906,2.213301,2.67,4.99,6.11
4836768000,0.999817,-0.015503,0.01355,-0.000305,-0.007812,-0.007812,0.003906,2.243065,,,
4846910000,0.999817,-0.015503,0.01355,-0.000305,0.027344,-0.007812,0.003906,2.253207,,,
4867685000,0.999817,-0.015503,0.01355,-0.000305,-0.007812,-0.007812,0.003906,2.273982,,,
4896549000,0.999817,-0.015503,0.01355,-0.000305,-0.007812,-0.007812,0.003906,2.302846,,,
4906338000,0.999817,-0.015503,0.01355,-0.000305,0.027344,-0.007812,0.003906,2.312635,,,
4927129000,0.999817,-0.015503,0.01355,-0.000305,-0.007812,-0.007812,0.003906,2.333426,,,
4955981000,0.999817,-0.015503,0.01355,-0.000305,-0.007812,-0.007812,-0.035156,2.362278,,,
4972245000,0.999817,-0.015503,0.01355,-0.000305,-0.007812,-0.007812,0.003906,2.378542,,,
4986210000,0.999817,-0.015503,0.01355,-0.000305,-0.007812,-0.007812,0.003906,2.392507,,,
5006411000,0.999817,-0.015503,0.01355,-0.000305,0.027344,-0.007812,0.003906,2.412708,2.67,4.98,6.11
5038606000,0.999817,-0.015503,0.01355,-0.000305,-0.007812,0.0,0.003906,2.444903,,,
5053466000,0.999817,-0.015503,0.01355,-0.000305,-0.007812,0.0,0.003906,2.459763,,,
5066013000,0.999817,-0.015503,0.01355,-0.000305,-0.007812,0.035156,-0.035156,2.47231,,,
5086414000,0.999817,-0.015503,0.01355,-0.000305,-0.007812,0.0,0.003906,2.492711,,,
5106531000,0.999817,-0.015503,0.01355,-0.000305,-0.007812,0.0,0.003906,2.512828,,,
5135675000,0.999817,-0.015503,0.013611,-0.000305,-0.007812,0.0,0.003906,2.541972,,,
5146049000,0.999817,-0.015503,0.013611,-0.000305,-0.007812,0.0,0.003906,2.552346,,,
5166309000,0.999817,-0.015442,0.013611,-0.000305,-0.007812,0.0,0.003906,2.572606,,,
5186250000,0.999817,-0.015442,0.013611,-0.000305,0.027344,0.0,0.003906,2.592547,,,
5215612000,0.999817,-0.015442,0.013611,-0.000305,0.027344,0.035156,0.003906,2.621909,2.67,4.97,6.1
5235400000,0.999817,-0.015503,0.013611,-0.000305,-0.007812,0.0,-0.035156,2.641697,,,
5251655000,0.999817,-0.015503,0.013611,-0.000305,-0.007812,0.035156,0.003906,2.657952,,,
5266120000,0.999817,-0.015442,0.013672,-0.000305,0.027344,0.0,0.042969,2.672417,,,
5286111000,0.999817,-0.015503,0.013611,-0.000305,-0.007812,-0.007812,-0.035156,2.692408,,,
5315083000,0.999817,-0.015503,0.013611,-0.000305,-0.007812,-0.007812,0.003906,2.72138,,,
5335953000,0.999817,-0.015503,0.013611,-0.000305,-0.007812,-0.007812,0.003906,2.74225,,,
5356139000,0.999756,-0.015503,0.013611,-0.000305,0.027344,0.027344,-0.035156,2.762436,,,
5365135000,0.999756,-0.015503,0.013611,-0.000305,0.027344,-0.007812,0.003906,2.771432,,,
5385772000,0.999756,-0.015503,0.013672,-0.000305,0.027344,-0.007812,0.003906,2.792069,,,
5405872000,0.999756,-0.015503,0.013672,-0.000305,-0.007812,-0.007812,0.003906,2.812169,2.67,4.98,6.1
5435077000,0.999756,-0.015564,0.013672,-0.000305,-0.015625,-0.007812,0.003906,2.841374,,,
5448002000,0.999756,-0.015564,0.013672,-0.000305,-0.015625,-0.007812,0.003906,2.854299,,,
5474894000,0.999756,-0.015564,0.013672,-0.000244,-0.015625,-0.007812,0.003906,2.881191,,,
5495533000,0.999756,-0.015564,0.013672,-0.000305,0.019531,-0.007812,0.003906,2.90183,,,
5514787000,0.999756,-0.015564,0.013672,-0.000244,-0.015625,-0.007812,0.003906,2.921084,,,
5524933000,0.999756,-0.015503,0.013672,-0.000305,-0.015625,0.027344,0.042969,2.93123,,,
5545592000,0.999756,-0.015503,0.013672,-0.000305,0.019531,-0.007812,0.003906,2.951889,,,
5565688000,0.999756,-0.015503,0.013672,-0.000305,-0.015625,-0.007812,0.003906,2.971985,,,
5594450000,0.999756,-0.015503,0.013733,-0.000305,-0.015625,0.027344,0.042969,3.000747,,,
5610828000,0.999756,-0.015503,0.013733,-0.000305,0.019531,-0.007812,0.003906,3.017125,2.68,4.98,6.11
5625442000,0.999756,-0.015503,0.013733,-0.000244,-0.015625,-0.007812,0.003906,3.031739,,,
5654708000,0.999756,-0.015442,0.013733,-0.000305,0.019531,-0.007812,0.003906,3.061005,,,
5675061000,0.999756,-0.015442,0.013733,-0.000244,0.019531,-0.007812,0.003906,3.081358,,,
5684300000,0.999817,-0.015442,0.013733,-0.000244,-0.015625,-0.007812,0.003906,3.090597,,,
5706474000,0.999817,-0.015442,0.013733,-0.000244,0.019531,-0.007812,0.003906,3.112771,,,
5725241000,0.999756,-0.015442,0.013733,-0.000244,0.019531,0.0,0.003906,3.131538,,,
5746203000,0.999756,-0.015442,0.013733,-0.000244,-0.015625,0.0,-0.003906,3.1525,,,
5766472000,0.999756,-0.015442,0.013733,-0.000244,-0.015625,0.0,-0.003906,3.172769,,,
5794241000,0.999756,-0.015442,0.013733,-0.000244,-0.015625,0.0,-0.003906,3.200538,,,
5804262000,0.999756,-0.015442,0.013733,-0.000244,-0.015625,0.0,-0.003906,3.210559,2.67,4.98,6.14
5825679000,0.999756,-0.015442,0.013733,-0.000244,-0.015625,0.0,-0.003906,3.231976,,,
5846407000,0.999756,-0.015442,0.013794,-0.000244,0.019531,0.0,0.035156,3.252704,,,
5873617000,0.999756,-0.015442,0.013794,-0.000244,0.027344,0.0,-0.003906,3.279914,,,
5890722000,0.999756,-0.015442,0.013794,-0.000244,0.027344,0.0,-0.003906,3.297019,,,
5905920000,0.999756,-0.015442,0.013794,-0.000244,-0.007812,0.0,-0.003906,3.312217,,,
5933756000,0.999756,-0.015442,0.013794,-0.000244,-0.046875,0.0,-0.003906,3.340053,,,
5953900000,0.999756,-0.015381,0.013794,-0.000244,0.027344,0.0,-0.003906,3.360197,,,
5974122000,0.999756,-0.015442,0.013794,-0.000244,0.027344,0.0,0.035156,3.380419,,,
5989747000,0.999756,-0.015442,0.013794,-0.000244,0.027344,0.0,-0.003906,3.396044,,,
6005169000,0.999756,-0.015442,0.013794,-0.000244,0.019531,0.0,-0.003906,3.411466,2.72,4.96,6.11
6033698000,0.999756,-0.015442,0.013794,-0.000244,0.019531,0.0,-0.042969,3.439995,,,
6053957000,0.999756,-0.015442,0.013855,-0.000244,0.019531,0.0,-0.003906,3.460254,,,
6073469000,0.999756,-0.015442,0.013855,-0.000244,-0.015625,0.0,0.035156,3.479766,,,
6093558000,0.999756,-0.015503,0.013855,-0.000244,0.019531,0.0,-0.003906,3.499855,,,
6113230000,0.999756,-0.015503,0.013855,-0.000305,-0.015625,0.0,-0.003906,3.519527,,,
6133041000,0.999756,-0.015503,0.013855,-0.000305,-0.015625,0.0,-0.003906,3.539338,,,
6152927000,0.999756,-0.015503,0.013916,-0.000305,0.019531,0.035156,-0.003906,3.559224,,,
6165629000,0.999756,-0.015503,0.013916,-0.000305,-0.015625,0.0,0.035156,3.571926,,,
6197205000,0.999756,-0.015503,0.013916,-0.000305,-0.015625,0.035156,-0.003906,3.603502,,,
6212948000,0.999756,-0.015503,0.013916,-0.000305,-0.015625,0.0,0.035156,3.619245,2.69,4.96,6.09
6232854000,0.999756,-0.015503,0.013916,-0.000305,-0.015625,0.0,-0.003906,3.639151,,,
6252511000,0.999756,-0.015503,0.013916,-0.000305,-0.015625,-0.007812,-0.003906,3.658808,,,
6278094000,0.999756,-0.015503,0.013916,-0.000305,-0.015625,-0.007812,-0.003906,3.684391,,,
6292554000,0.999756,-0.015503,0.013916,-0.000305,-0.015625,-0.007812,0.035156,3.698851,,,
6313282000,0.999756,-0.015503,0.013916,-0.000305,-0.015625,-0.007812,-0.003906,3.719579,,,
6332866000,0.999756,-0.015503,0.013916,-0.000305,0.019531,0.0,-0.003906,3.739163,,,
6353326000,0.999756,-0.015503,0.013916,-0.000305,-0.015625,0.0,-0.003906,3.759623,,,
6372598000,0.999756,-0.015503,0.013916,-0.000305,-0.015625,0.0,-0.003906,3.778895,,,
6392976000,0.999756,-0.015503,0.013916,-0.000305,0.019531,0.0,-0.003906,3.799273,,,
6417081000,0.999756,-0.015503,0.013916,-0.000305,-0.015625,0.0,-0.003906,3.823378,2.68,4.96,6.13
6432325000,0.999756,-0.015503,0.013916,-0.000305,0.027344,0.0,-0.003906,3.838622,,,
6452175000,0.999756,-0.015503,0.013916,-0.000305,-0.007812,0.0,-0.003906,3.858472,,,
6482515000,0.999756,-0.015503,0.013916,-0.000305,-0.007812,0.0,-0.003906,3.888812,,,
6497386000,0.999756,-0.015503,0.013916,-0.000305,-0.007812,0.0,-0.003906,3.903683,,,
6512339000,0.999756,-0.015503,0.013916,-0.000305,0.027344,0.0,-0.003906,3.918636,,,
6531980000,0.999756,-0.015503,0.013916,-0.000305,0.027344,0.0,-0.003906,3.938277,,,
6551985000,0.999756,-0.015503,0.013916,-0.000305,-0.015625,0.0,-0.003906,3.958282,,,
6573953000,0.999756,-0.015503,0.013916,-0.000305,-0.015625,0.035156,-0.003906,3.98025,,,
6591694000,0.999756,-0.015503,0.013916,-0.000305,-0.015625,0.035156,-0.003906,3.997991,,,
6612154000,0.999756,-0.015503,0.013916,-0.000305,0.019531,0.0,-0.003906,4.018451,2.7,4.94,6.11
6634206000,0.999756,-0.015503,0.013916,-0.000305,-0.015625,0.0,-0.003906,4.040503,,,
6652009000,0.999756,-0.015503,0.013916,-0.000305,0.019531,-0.007812,-0.003906,4.058306,,,
6671854000,0.999756,-0.015503,0.013916,-0.000305,0.019531,-0.007812,-0.003906,4.078151,,,
6691665000,0.999756,-0.015503,0.013916,-0.000305,-0.015625,-0.007812,-0.003906,4.097962,,,
6712302000,0.999756,-0.015503,0.013916,-0.000305,0.019531,-0.007812,0.003906,4.118599,,,
6731772000,0.999756,-0.015503,0.013916,-0.000305,0.019531,-0.007812,-0.035156,4.138069,,,
6751147000,0.999756,-0.015503,0.013916,-0.000305,-0.015625,-0.007812,0.003906,4.157444,,,
6781251000,0.999756,-0.015503,0.013916,-0.000305,-0.015625,-0.007812,0.003906,4.187548,,,
6795181000,0.999756,-0.015503,0.013916,-0.000305,0.019531,-0.007812,-0.035156,4.201478,,,
6811761000,0.999756,-0.015503,0.013916,-0.000305,0.019531,-0.007812,0.003906,4.218058,2.65,4.96,6.11
6831100000,0.999756,-0.015503,0.013916,-0.000305,-0.015625,-0.007812,0.003906,4.237397,,,
6851053000,0.999756,-0.015503,0.013916,-0.000305,-0.015625,-0.007812,0.003906,4.25735,,,
6873660000,0.999756,-0.015503,0.013916,-0.000305,0.019531,-0.007812,0.003906,4.279957,,,
6890948000,0.999756,-0.015503,0.013916,-0.000305,-0.015625,0.027344,0.003906,4.297245,,,
6912230000,0.999756,-0.015503,0.013916,-0.000305,0.019531,0.027344,0.003906,4.318527,,,
6930725000,0.999756,-0.015503,0.013916,-0.000305,0.019531,0.027344,0.003906,4.337022,,,
6951265000,0.999756,-0.015503,0.013916,-0.000305,-0.015625,-0.007812,0.003906,4.357562,,,
6973228000,0.999756,-0.015503,0.013916,-0.000305,-0.015625,0.027344,0.003906,4.379525,,,
6990818000,0.999756,-0.015503,0.013916,-0.000305,-0.007812,-0.007812,0.003906,4.397115,,,
7011201000,0.999756,-0.015503,0.013916,-0.000305,0.027344,-0.007812,0.003906,4.417498,2.66,4.97,6.11
7030726000,0.999756,-0.015503,0.013916,-0.000305,-0.007812,-0.007812,0.003906,4.437023,,,
7054020000,0.999756,-0.015503,0.013916,-0.000305,0.027344,0.027344,0.003906,4.460317,,,
7070834000,0.999756,-0.015503,0.013916,-0.000305,0.019531,-0.007812,0.003906,4.477131,,,
7100176000,0.999756,-0.015503,0.013916,-0.000305,0.019531,-0.007812,0.003906,4.506473,,,
7116608000,0.999756,-0.015503,0.013916,-0.000305,0.019531,-0.007812,0.003906,4.522905,,,
7130054000,0.999756,-0.015503,0.013916,-0.000305,0.019531,-0.007812,0.003906,4.536351,,,
7150343000,0.999756,-0.015503,0.013916,-0.000305,0.019531,-0.007812,0.003906,4.55664,,,
7171542000,0.999756,-0.015503,0.013916,-0.000305,-0.015625,-0.007812,0.042969,4.577839,,,
7195547000,0.999756,-0.015503,0.013916,-0.000305,0.019531,-0.007812,0.003906,4.601844,,,
7210524000,0.999756,-0.015503,0.013916,-0.000305,0.019531,-0.007812,-0.035156,4.616821,2.72,4.97,6.1
7229836000,0.999756,-0.015503,0.013916,-0.000305,-0.015625,-0.007812,-0.035156,4.636133,,,
7250320000,0.999756,-0.015503,0.013916,-0.000305,-0.015625,-0.007812,0.003906,4.656617,,,
7271103000,0.999756,-0.015503,0.013916,-0.000305,-0.015625,-0.007812,0.042969,4.6774,,,
7297167000,0.999756,-0.015503,0.013916,-0.000305,0.019531,0.027344,-0.035156,4.703464,,,
7309515000,0.999756,-0.015503,0.013916,-0.000305,-0.015625,-0.007812,0.003906,4.715812,,,
7330206000,0.999756,-0.015503,0.013916,-0.000305,-0.015625,-0.007812,0.003906,4.736503,,,
7350473000,0.999756,-0.015503,0.013916,-0.000305,0.019531,-0.007812,0.003906,4.75677,,,
7373842000,0.999756,-0.015503,0.013916,-0.000305,0.019531,-0.007812,0.003906,4.780139,,,
7391429000,0.999756,-0.015503,0.013916,-0.000305,-0.015625,-0.007812,0.003906,4.797726,,,
7409430000,0.999756,-0.015503,0.013916,-0.000305,0.019531,-0.007812,0.003906,4.815727,2.71,4.97,6.1
7430089000,0.999756,-0.015503,0.013916,-0.000305,-0.015625,-0.007812,0.003906,4.836386,,,
7460502000,0.999756,-0.015503,0.013916,-0.000305,-0.015625,-0.007812,0.042969,4.866799,,,
7469555000,0.999756,-0.015503,0.013916,-0.000305,-0.015625,-0.007812,0.003906,4.875852,,,
7489696000,0.999756,-0.015503,0.013916,-0.000305,-0.015625,-0.007812,0.003906,4.895993,,,
7510077000,0.999756,-0.015503,0.013916,-0.000305,0.019531,-0.007812,0.003906,4.916374,,,
7539335000,0.999756,-0.015503,0.013916,-0.000305,-0.015625,0.027344,0.003906,4.945632,,,
7553621000,0.999756,-0.015503,0.013916,-0.000305,0.019531,-0.007812,0.003906,4.959918,,,
7569240000,0.999756,-0.015503,0.013916,-0.000305,-0.015625,0.027344,0.042969,4.975537,,,
7589435000,0.999756,-0.015503,0.013916,-0.000305,-0.015625,-0.007812,0.003906,4.995732,,,
7608869000,0.999756,-0.015503,0.013916,-0.000305,0.019531,-0.007812,-0.035156,5.015166,2.67,4.97,6.12
7638858000,0.999756,-0.015503,0.013916,-0.000305,-0.015625,-0.007812,0.003906,5.045155,,,
7649055000,0.999756,-0.015503,0.013916,-0.000305,-0.015625,-0.007812,0.003906,5.055352,,,
7669173000,0.999756,-0.015503,0.013916,-0.000305,-0.015625,-0.007812,0.003906,5.07547,,,
7701407000,0.999756,-0.015503,0.013916,-0.000305,-0.015625,-0.007812,0.035156,5.107704,,,
7708453000,0.999756,-0.015503,0.013916,-0.000305,0.019531,-0.007812,-0.003906,5.11475,,,
7728569000,0.999756,-0.015503,0.013916,-0.000305,0.019531,-0.007812,-0.003906,5.134866,,,
7748926000,0.999756,-0.015503,0.013916,-0.000305,-0.015625,-0.007812,-0.003906,5.155223,,,
7779222000,0.999756,-0.015503,0.013916,-0.000305,-0.015625,-0.007812,-0.003906,5.185519,,,
7792803000,0.999756,-0.015503,0.013916,-0.000305,-0.015625,-0.007812,-0.003906,5.1991,,,
7809349000,0.999756,-0.015503,0.013916,-0.000305,0.019531,-0.007812,-0.003906,5.215646,2.7,4.98,6.1
7828603000,0.999756,-0.015503,0.013916,-0.000305,-0.015625,-0.007812,-0.003906,5.2349,,,
7849716000,0.999756,-0.015503,0.013916,-0.000305,-0.015625,-0.007812,-0.003906,5.256013,,,
7874926000,0.999756,-0.015503,0.013916,-0.000305,0.019531,-0.007812,0.035156,5.281223,,,
7888275000,0.999756,-0.015503,0.013916,-0.000305,0.019531,0.027344,0.035156,5.294572,,,
7908222000,0.999756,-0.015503,0.013916,-0.000305,0.019531,-0.007812,-0.003906,5.314519,,,
7928707000,0.999756,-0.015503,0.013916,-0.000305,-0.015625,-0.046875,-0.003906,5.335004,,,
7947903000,0.999756,-0.015503,0.013916,-0.000305,-0.015625,-0.007812,-0.003906,5.3542,,,
7968322000,0.999756,-0.015503,0.013916,-0.000305,-0.015625,-0.007812,-0.003906,5.374619,,,
7988596000,0.999756,-0.015503,0.013916,-0.000305,0.019531,0.0,-0.003906,5.394893,,,
8017819000,0.999756,-0.015503,0.013916,-0.000305,-0.015625,0.0,-0.003906,5.424116,2.71,5.0,6.1
8027941000,0.999756,-0.015503,0.013916,-0.000305,-0.015625,0.0,-0.003906,5.434238,,,
8047492000,0.999756,-0.015503,0.013916,-0.000305,0.019531,0.0,-0.003906,5.453789,,,
8068179000,0.999756,-0.015503,0.013916,-0.000305,-0.015625,0.035156,-0.042969,5.474476,,,
8097490000,0.999756,-0.015503,0.013916,-0.000305,-0.015625,0.035156,0.003906,5.503787,,,
8111253000,0.999756,-0.015503,0.013916,-0.000305,-0.015625,0.0,0.003906,5.51755,,,
8127836000,0.999756,-0.015503,0.013916,-0.000305,-0.015625,0.027344,0.003906,5.534133,,,
8152773000,0.999756,-0.015503,0.013916,-0.000305,-0.015625,-0.007812,0.003906,5.55907,,,
8167134000,0.999756,-0.015503,0.013916,-0.000305,0.019531,-0.007812,0.003906,5.573431,,,
8187710000,0.999756,-0.015503,0.013916,-0.000305,-0.015625,-0.007812,0.003906,5.594007,,,
8217978000,0.999756,-0.015503,0.013916,-0.000305,-0.015625,-0.007812,0.003906,5.624275,2.69,4.98,6.1
8231441000,0.999756,-0.015503,0.013916,-0.000305,-0.015625,-0.007812,0.003906,5.637738,,,
8246939000,0.999756,-0.015503,0.013916,-0.000305,-0.015625,-0.007812,-0.003906,5.653236,,,
8267709000,0.999756,-0.015503,0.013916,-0.000305,-0.015625,-0.007812,-0.003906,5.674006,,,
8287171000,0.999756,-0.015503,0.013916,-0.000305,-0.015625,-0.007812,-0.003906,5.693468,,,
8317340000,0.999756,-0.015503,0.013916,-0.000305,-0.007812,-0.007812,-0.003906,5.723637,,,
8326945000,0.999756,-0.015503,0.013916,-0.000305,-0.007812,-0.007812,-0.003906,5.733242,,,
8346809000,0.999756,-0.015503,0.013916,-0.000305,-0.007812,-0.007812,-0.003906,5.753106,,,
8376926000,0.999756,-0.015503,0.013916,-0.000305,0.027344,-0.007812,-0.003906,5.783223,,,
8387206000,0.999756,-0.015503,0.013916,-0.000305,0.027344,-0.007812,-0.003906,5.793503,,,
8407792000,0.999756,-0.015503,0.013916,-0.000305,-0.007812,0.0,-0.003906,5.814089,2.65,4.97,6.09
8427486000,0.999756,-0.015503,0.013916,-0.000305,-0.007812,0.035156,0.035156,5.833783,,,
8456679000,0.999756,-0.015503,0.013916,-0.000305,-0.007812,0.0,0.035156,5.862976,,,
8466791000,0.999756,-0.015503,0.013916,-0.000305,0.027344,0.0,-0.003906,5.873088,,,
8487265000,0.999756,-0.015503,0.013916,-0.000305,-0.007812,0.0,-0.003906,5.893562,,,
8506682000,0.999756,-0.015503,0.013916,-0.000305,0.027344,0.0,-0.003906,5.912979,,,
8536085000,0.999756,-0.015503,0.013916,-0.000305,-0.007812,0.0,-0.003906,5.942382,,,
8553142000,0.999756,-0.015503,0.013916,-0.000305,0.027344,0.0,-0.042969,5.959439,,,
8567039000,0.999756,-0.015503,0.013916,-0.000305,-0.007812,0.035156,0.035156,5.973336,,,
8586485000,0.999756,-0.015503,0.013916,-0.000305,0.027344,0.035156,-0.003906,5.992782,,,
8606418000,0.999756,-0.015503,0.013916,-0.000305,0.019531,-0.007812,-0.003906,6.012715,2.71,4.98,6.1
8636151000,0.999756,-0.015503,0.013916,-0.000305,0.019531,-0.007812,-0.003906,6.042448,,,
8646006000,0.999756,-0.015503,0.013916,-0.000305,-0.015625,0.027344,0.003906,6.052303,,,
8666330000,0.999756,-0.015503,0.013916,-0.000305,-0.015625,-0.007812,-0.035156,6.072627,,,
8686565000,0.999756,-0.015503,0.013916,-0.000305,-0.015625,-0.007812,0.003906,6.092862,,,
8706647000,0.999756,-0.015503,0.013916,-0.000305,0.019531,-0.007812,0.003906,6.112944,,,
8727004000,0.999756,-0.015503,0.013916,-0.000305,0.019531,0.027344,0.003906,6.133301,,,
8746641000,0.999756,-0.015503,0.013916,-0.000305,-0.015625,-0.007812,0.003906,6.152938,,,
8776261000,0.999756,-0.015503,0.013916,-0.000305,-0.015625,-0.007812,0.035156,6.182558,,,
8790055000,0.999756,-0.015503,0.013916,-0.000305,0.019531,-0.007812,-0.003906,6.196352,,,
8811781000,0.999756,-0.015503,0.013916,-0.000305,0.019531,0.027344,-0.003906,6.218078,2.7,4.98,6.13
8841230000,0.999756,-0.015503,0.013916,-0.000305,-0.015625,0.027344,0.035156,6.247527,,,
8855160000,0.999756,-0.015564,0.013855,-0.000305,-0.054688,-0.046875,-0.042969,6.261457,,,
8866597000,0.999756,-0.015564,0.013855,-0.000305,0.019531,0.027344,-0.003906,6.272894,,,
8886139000,0.999756,-0.015503,0.013916,-0.000305,0.019531,-0.007812,0.035156,6.292436,,,
8915154000,0.999756,-0.015564,0.013855,-0.000305,-0.015625,-0.007812,-0.003906,6.321451,,,
8933198000,0.999756,-0.015564,0.013855,-0.000305,0.019531,-0.007812,-0.003906,6.339495,,,
8945960000,0.999756,-0.015625,0.013855,-0.000305,-0.015625,-0.007812,-0.003906,6.352257,,,
8965990000,0.999756,-0.015625,0.013855,-0.000305,-0.015625,-0.007812,-0.003906,6.372287,,,
8995198000,0.999756,-0.015625,0.013855,-0.000305,-0.015625,-0.007812,-0.003906,6.401495,,,
9005621000,0.999756,-0.015625,0.013794,-0.000305,0.027344,-0.007812,-0.003906,6.411918,,,
9026088000,0.999756,-0.015625,0.013794,-0.000305,0.019531,-0.007812,0.035156,6.432385,2.68,4.98,6.1
9046022000,0.999756,-0.015686,0.013794,-0.000305,-0.007812,-0.007812,-0.003906,6.452319,,,
9075197000,0.999756,-0.015625,0.013794,-0.000305,-0.007812,-0.007812,0.035156,6.481494,,,
9085501000,0.999756,-0.015625,0.013855,-0.000305,0.027344,-0.007812,-0.042969,6.491798,,,
9116911000,0.999756,-0.015625,0.013794,-0.000305,-0.007812,-0.007812,0.027344,6.523208,,,
9134299000,0.999756,-0.015564,0.013794,-0.000305,-0.007812,-0.007812,-0.011719,6.540596,,,
9150803000,0.999756,-0.015564,0.013855,-0.000305,0.027344,-0.007812,0.027344,6.5571,,,
9165754000,0.999756,-0.015564,0.013855,-0.000305,0.027344,-0.007812,0.027344,6.572051,,,
9195448000,0.999756,-0.015625,0.013855,-0.000305,-0.015625,-0.007812,-0.011719,6.601745,,,
9214508000,0.999756,-0.015564,0.013855,-0.000305,0.019531,-0.007812,-0.011719,6.620805,2.7,4.97,6.09
9230834000,0.999756,-0.015564,0.013794,-0.000305,-0.015625,-0.007812,-0.011719,6.637131,,,
9245493000,0.999756,-0.015564,0.013855,-0.000366,0.019531,-0.007812,0.027344,6.65179,,,
9265642000,0.999756,-0.015564,0.013794,-0.000366,-0.015625,-0.007812,-0.011719,6.671939,,,
9285838000,0.999756,-0.015564,0.013794,-0.000366,0.019531,-0.007812,0.027344,6.692135,,,
9314416000,0.999756,-0.015564,0.013794,-0.000366,-0.015625,0.027344,-0.011719,6.720713,,,
9324523000,0.999756,-0.015564,0.013794,-0.000366,-0.015625,-0.007812,-0.011719,6.73082,,,
9345964000,0.999756,-0.015564,0.013794,-0.000366,-0.015625,-0.007812,0.027344,6.752261,,,
9365827000,0.999756,-0.015564,0.013794,-0.000366,0.019531,-0.007812,0.027344,6.772124,,,
9394876000,0.999756,-0.015625,0.013794,-0.000366,0.011719,-0.007812,-0.011719,6.801173,,,
9404636000,0.999756,-0.015564,0.013794,-0.000366,-0.023438,-0.007812,-0.011719,6.810933,,,
9425615000,0.999756,-0.015625,0.013794,-0.000366,-0.015625,-0.007812,0.027344,6.831912,2.67,4.95,6.1
9445726000,0.999756,-0.015625,0.013794,-0.000366,-0.007812,0.0,-0.011719,6.852023,,,
9465555000,0.999756,-0.015625,0.013794,-0.000305,0.027344,0.0,-0.011719,6.871852,,,
9485607000,0.999756,-0.015625,0.013794,-0.000305,-0.007812,0.035156,-0.011719,6.891904,,,
9506521000,0.999756,-0.015625,0.013794,-0.000366,-0.007812,0.0,-0.011719,6.912818,,,
9534340000,0.999756,-0.015625,0.013794,-0.000305,-0.007812,-0.007812,0.027344,6.940637,,,
9544689000,0.999756,-0.015625,0.013794,-0.000305,0.027344,-0.007812,-0.011719,6.950986,,,
9565662000,0.999756,-0.015564,0.013794,-0.000305,-0.007812,-0.007812,-0.011719,6.971959,,,
9593586000,0.999756,-0.015564,0.013794,-0.000305,0.027344,0.027344,0.027344,6.999883,,,
9604118000,0.999756,-0.015625,0.013794,-0.000305,-0.007812,-0.007812,-0.011719,7.010415,,,
9626628000,0.999756,-0.015625,0.013794,-0.000305,-0.007812,-0.007812,-0.011719,7.032925,2.64,4.96,6.1
9654180000,0.999756,-0.015625,0.013855,-0.000305,0.027344,-0.007812,-0.011719,7.060477,,,
9673786000,0.999756,-0.015625,0.013855,-0.000366,-0.007812,-0.007812,-0.003906,7.080083,,,
9690304000,0.999756,-0.015625,0.013794,-0.000305,-0.007812,-0.007812,-0.003906,7.096601,,,
9715852000,0.999756,-0.015625,0.013794,-0.000366,-0.007812,-0.007812,-0.003906,7.122149,,,
9724350000,0.999756,-0.015625,0.013794,-0.000366,-0.007812,-0.007812,-0.042969,7.130647,,,
9753890000,0.999756,-0.015625,0.013794,-0.000366,0.027344,-0.007812,0.035156,7.160187,,,
9770385000,0.999756,-0.015686,0.013794,-0.000366,-0.007812,0.027344,0.035156,7.176682,,,
9793711000,0.999756,-0.015625,0.013794,-0.000366,-0.007812,-0.007812,-0.003906,7.200008,,,
9813456000,0.999756,-0.015625,0.013794,-0.000366,0.027344,-0.007812,-0.003906,7.219753,2.64,4.98,6.1
9836368000,0.999756,-0.015686,0.013794,-0.000366,-0.007812,-0.007812,0.035156,7.242665,,,
9853181000,0.999756,-0.015686,0.013794,-0.000366,0.019531,-0.007812,-0.003906,7.259478,,,
9872990000,0.999756,-0.015625,0.013794,-0.000427,-0.015625,0.0,-0.003906,7.279287,,,
9892579000,0.999756,-0.015625,0.013794,-0.000427,0.019531,0.035156,-0.003906,7.298876,,,
9912709000,0.999756,-0.015625,0.013794,-0.000427,-0.015625,-0.007812,-0.003906,7.319006,,,
9938130000,0.999756,-0.015625,0.013794,-0.000427,-0.015625,-0.007812,0.035156,7.344427,,,
9953140000,0.999756,-0.015625,0.013794,-0.000427,-0.015625,0.0,0.003906,7.359437,,,
9972466000,0.999756,-0.015625,0.013794,-0.000427,0.019531,-0.007812,0.003906,7.378763,,,
9992417000,0.999756,-0.015625,0.013794,-0.000427,0.019531,-0.007812,0.003906,7.398714,,,
10012272000,0.999756,-0.015625,0.013794,-0.000427,-0.023438,-0.007812,0.003906,7.418569,2.65,4.96,6.08
10032173000,0.999756,-0.015625,0.013794,-0.000427,-0.023438,-0.007812,0.003906,7.43847,,,
10054663000,0.999756,-0.015625,0.013733,-0.000427,-0.023438,-0.007812,0.003906,7.46096,,,
10077987000,0.999756,-0.015686,0.013733,-0.000427,-0.023438,-0.007812,0.003906,7.484284,,,
10092382000,0.999756,-0.015625,0.013733,-0.000427,0.011719,-0.007812,0.003906,7.498679,,,
10112217000,0.999756,-0.015625,0.013733,-0.000427,-0.023438,-0.007812,0.003906,7.518514,,,
10132366000,0.999756,-0.015686,0.013733,-0.000427,0.011719,-0.007812,0.003906,7.538663,,,
10152692000,0.999756,-0.015686,0.013733,-0.000427,-0.023438,-0.007812,0.003906,7.558989,,,
10172304000,0.999756,-0.015686,0.013733,-0.000427,-0.023438,-0.007812,0.003906,7.578601,,,
10184212000,0.999756,-0.015686,0.013733,-0.000427,0.019531,-0.007812,-0.035156,7.590509,,,
10211694000,0.999756,-0.015686,0.013733,-0.000427,0.019531,-0.007812,0.042969,7.617991,2.61,4.94,6.07
10231452000,0.999756,-0.015686,0.013733,-0.000427,-0.015625,-0.007812,0.003906,7.637749,,,
10252730000,0.999756,-0.015686,0.013733,-0.000427,0.019531,-0.007812,0.003906,7.659027,,,
10277212000,0.999756,-0.015686,0.013733,-0.000427,-0.015625,-0.007812,0.042969,7.683509,,,
10291739000,0.999756,-0.015686,0.013733,-0.000427,-0.015625,-0.007812,0.003906,7.698036,,,
10311788000,0.999756,-0.015686,0.013733,-0.000427,-0.015625,0.027344,0.003906,7.718085,,,
10331585000,0.999756,-0.015686,0.013733,-0.000427,-0.015625,-0.007812,0.003906,7.737882,,,
10356513000,0.999756,-0.015686,0.013733,-0.000427,-0.015625,-0.007812,0.003906,7.76281,,,
10371184000,0.999756,-0.015686,0.013733,-0.000427,-0.015625,-0.007812,-0.035156,7.777481,,,
10391670000,0.999756,-0.015686,0.013733,-0.000427,-0.015625,0.027344,0.003906,7.797967,,,
10411089000,0.999756,-0.015686,0.013733,-0.000427,-0.015625,-0.007812,0.003906,7.817386,2.71,4.98,6.06
10434251000,0.999756,-0.015686,0.013733,-0.000427,0.019531,-0.007812,0.003906,7.840548,,,
10451535000,0.999756,-0.015686,0.013733,-0.000427,-0.015625,-0.007812,0.003906,7.857832,,,
10471426000,0.999756,-0.015686,0.013733,-0.000427,0.019531,-0.007812,0.003906,7.877723,,,
10490830000,0.999756,-0.015686,0.013733,-0.000427,-0.015625,-0.007812,0.003906,7.897127,,,
10521109000,0.999756,-0.015686,0.013733,-0.000427,0.019531,-0.007812,0.042969,7.927406,,,
10537428000,0.999756,-0.015686,0.013733,-0.000427,0.019531,0.027344,0.003906,7.943725,,,
10550672000,0.999756,-0.015686,0.013733,-0.000427,-0.015625,-0.007812,0.003906,7.956969,,,
10570987000,0.999756,-0.015686,0.013733,-0.000427,-0.015625,-0.007812,0.003906,7.977284,,,
10591065000,0.999756,-0.015686,0.013733,-0.000427,-0.015625,-0.007812,0.003906,7.997362,,,
10610761000,0.999756,-0.015686,0.013733,-0.000427,0.019531,-0.007812,0.003906,8.017058,,,
10635694000,0.999756,-0.015686,0.013733,-0.000427,0.019531,-0.007812,0.042969,8.041991,2.69,4.98,6.07
10650594000,0.999756,-0.015686,0.013733,-0.000427,-0.015625,-0.007812,0.003906,8.056891,,,
10669916000,0.999756,-0.015686,0.013733,-0.000427,0.019531,-0.007812,0.042969,8.076213,,,
10690282000,0.999756,-0.015686,0.013733,-0.000427,-0.015625,-0.007812,0.035156,8.096579,,,
10713783000,0.999756,-0.015686,0.013733,-0.000427,-0.015625,-0.007812,0.035156,8.12008,,,
10730857000,0.999756,-0.015686,0.013733,-0.000427,-0.015625,-0.007812,-0.003906,8.137154,,,
10750236000,0.999756,-0.015686,0.013733,-0.000427,-0.015625,-0.007812,-0.003906,8.156533,,,
10772812000,0.999756,-0.015686,0.013733,-0.000427,-0.015625,-0.007812,-0.003906,8.179109,,,
10800213000,0.999756,-0.015686,0.013733,-0.000427,-0.015625,-0.007812,-0.003906,8.20651,,,
10816977000,0.999756,-0.015686,0.013733,-0.000427,0.019531,-0.007812,-0.003906,8.223274,2.69,5.0,6.12
10829945000,0.999756,-0.015686,0.013733,-0.000427,0.019531,0.027344,-0.003906,8.236242,,,
10850080000,0.999756,-0.015686,0.013733,-0.000427,0.019531,-0.007812,0.035156,8.256377,,,
10870836000,0.999756,-0.015686,0.013733,-0.000427,-0.015625,-0.007812,0.035156,8.277133,,,
10895309000,0.999756,-0.015686,0.013794,-0.000427,0.019531,-0.007812,-0.003906,8.301606,,,
10910355000,0.999756,-0.015686,0.013855,-0.000427,0.027344,0.027344,0.070312,8.316652,,,
10929715000,0.999756,-0.015686,0.013855,-0.000427,0.027344,-0.007812,0.035156,8.336012,,,
10949637000,0.999756,-0.015686,0.013977,-0.000427,0.027344,0.027344,0.035156,8.355934,,,
10979891000,0.999756,-0.015747,0.013916,-0.000427,-0.007812,0.027344,-0.003906,8.386188,,,
10989518000,0.999756,-0.015747,0.013794,-0.000427,-0.007812,-0.007812,-0.003906,8.395815,,,
11009321000,0.999756,-0.015747,0.013794,-0.000427,0.058594,-0.007812,0.070312,8.415618,,,
11029897000,0.999756,-0.015747,0.013794,-0.000427,0.027344,0.027344,0.027344,8.436194,2.75,4.99,6.09
11059543000,0.999756,-0.015747,0.013794,-0.000427,-0.007812,-0.007812,-0.011719,8.46584,,,
11078325000,0.999756,-0.015747,0.013794,-0.000427,-0.007812,-0.007812,-0.011719,8.484622,,,
11089161000,0.999756,-0.015747,0.013855,-0.000427,0.027344,0.027344,0.027344,8.495458,,,
11109375000,0.999756,-0.01593,0.013794,-0.000427,0.027344,0.0,-0.011719,8.515672,,,
11130270000,0.999756,-0.015869,0.013794,-0.000366,-0.054688,0.113281,-0.050781,8.536567,,,
11154203000,0.999756,-0.015808,0.013733,-0.000427,0.019531,0.027344,-0.011719,8.5605,,,
11168947000,0.999756,-0.015747,0.013733,-0.000427,-0.015625,-0.007812,-0.011719,8.575244,,,
11189173000,0.999756,-0.015808,0.013733,-0.000427,-0.015625,-0.015625,-0.011719,8.59547,,,
11210162000,0.999756,-0.015808,0.013733,-0.000427,-0.015625,0.027344,-0.011719,8.616459,,,
11236258000,0.999756,-0.015747,0.013733,-0.000427,0.019531,-0.007812,0.027344,8.642555,2.74,5.0,6.07
11248935000,0.999756,-0.015747,0.013794,-0.000427,0.019531,-0.015625,0.035156,8.655232,,,
11268957000,0.999756,-0.015686,0.013855,-0.000427,0.011719,-0.054688,0.035156,8.675254,,,
11299976000,0.999756,-0.015747,0.013794,-0.000427,-0.015625,-0.015625,-0.003906,8.706273,,,
11308771000,0.999756,-0.015747,0.013794,-0.000427,-0.015625,-0.015625,0.035156,8.715068,,,
11329426000,0.999756,-0.015747,0.013733,-0.000427,-0.015625,-0.015625,0.035156,8.735723,,,
11352401000,0.999756,-0.015808,0.013672,-0.000427,-0.015625,0.019531,-0.042969,8.758698,,,
11369035000,0.999756,-0.015869,0.013611,-0.000427,-0.015625,-0.007812,0.035156,8.775332,,,
11388983000,0.999756,-0.015869,0.013611,-0.000427,0.019531,-0.007812,-0.003906,8.79528,,,
11408767000,0.999756,-0.015869,0.01355,-0.000427,0.011719,0.0,-0.003906,8.815064,,,
11438465000,0.999756,-0.015808,0.013611,-0.000427,0.011719,0.0,0.035156,8.844762,2.74,5.03,6.03
11454334000,0.999756,-0.015808,0.013672,-0.000427,-0.023438,0.0,-0.003906,8.860631,,,
11468226000,0.999756,-0.015747,0.013672,-0.000427,-0.015625,0.0,-0.003906,8.874523,,,
11498756000,0.999756,-0.015686,0.013733,-0.000427,-0.015625,-0.007812,-0.003906,8.905053,,,
11508152000,0.999756,-0.015686,0.013733,-0.000427,0.019531,-0.007812,0.035156,8.914449,,,
11528347000,0.999756,-0.015686,0.013794,-0.000427,0.019531,0.027344,0.035156,8.934644,,,
11548088000,0.999756,-0.015686,0.013794,-0.000427,0.019531,-0.046875,0.035156,8.954385,,,
11578494000,0.999756,-0.015686,0.013794,-0.000488,-0.015625,-0.007812,-0.003906,8.984791,,,
11595038000,0.999756,-0.015686,0.013855,-0.000488,0.019531,-0.007812,-0.003906,9.001335,,,
11607988000,0.999756,-0.015564,0.014038,-0.000549,0.027344,-0.007812,0.035156,9.014285,,,
11628063000,0.999756,-0.015442,0.014282,-0.000671,-0.007812,-0.007812,0.035156,9.03436,2.72,5.03,6.04
11650706000,0.999756,-0.015625,0.014587,-0.001526,-0.007812,0.027344,-0.042969,9.057003,,,
11673755000,0.999756,-0.015686,0.014771,-0.00238,0.0,0.074219,-0.042969,9.080052,,,
11688509000,0.999756,-0.015625,0.014771,-0.002808,0.0,-0.230469,-0.042969,9.094806,,,
11708704000,0.999756,-0.015564,0.014832,-0.003296,0.0,0.0,-0.003906,9.115001,,,
11728269000,0.999756,-0.015564,0.014954,-0.00415,0.035156,0.027344,0.035156,9.134566,,,
11758089000,0.999756,-0.015564,0.015259,-0.006836,0.066406,0.21875,0.035156,9.164386,,,
11767765000,0.999756,-0.015564,0.015381,-0.008057,0.105469,0.136719,0.035156,9.174062,,,
11787607000,0.999695,-0.015564,0.015564,-0.010498,0.027344,-0.085938,-0.003906,9.193904,,,
11807382000,0.999695,-0.015625,0.015442,-0.011597,-0.429688,-0.355469,-0.042969,9.213679,,,
11827284000,0.999695,-0.015564,0.01532,-0.011719,-0.09375,-0.132812,-0.003906,9.233581,,,
11857684000,0.999695,-0.015564,0.015381,-0.011719,0.019531,-0.015625,0.035156,9.263981,2.75,5.02,6.0
11872748000,0.999695,-0.015625,0.015442,-0.011719,-0.015625,0.019531,-0.003906,9.279045,,,
11886917000,0.999695,-0.015686,0.015564,-0.011719,0.011719,-0.015625,0.035156,9.293214,,,
11907653000,0.999695,-0.015503,0.015564,-0.012451,-0.015625,0.019531,-0.003906,9.31395,,,
11927429000,0.999634,-0.015503,0.015503,-0.013977,0.019531,0.097656,0.035156,9.333726,,,
11951934000,0.999634,-0.015503,0.015442,-0.01532,-0.09375,0.019531,-0.042969,9.358231,,,
11966988000,0.999634,-0.015442,0.015442,-0.016052,-0.054688,-0.132812,-0.003906,9.373285,,,
11987117000,0.999634,-0.015503,0.015503,-0.016357,-0.023438,-0.09375,-0.003906,9.393414,,,
12008651000,0.999634,-0.015564,0.015503,-0.016357,0.019531,-0.09375,-0.003906,9.414948,,,
12032059000,0.999634,-0.015686,0.015564,-0.016357,-0.015625,-0.054688,0.035156,9.438356,,,
12047101000,0.999634,-0.015686,0.015625,-0.016357,-0.015625,-0.007812,-0.003906,9.453398,,,
12076708000,0.999634,-0.015808,0.015686,-0.016479,-0.015625,-0.007812,-0.003906,9.483005,2.74,5.05,5.99
12086931000,0.999634,-0.015869,0.015686,-0.016479,-0.054688,-0.046875,-0.003906,9.493228,,,
12106858000,0.999634,-0.015808,0.015686,-0.016479,-0.054688,-0.046875,-0.003906,9.513155,,,
12127496000,0.999634,-0.015808,0.015564,-0.016602,-0.015625,-0.007812,-0.003906,9.533793,,,
12153217000,0.999634,-0.01593,0.015503,-0.016663,-0.015625,-0.046875,-0.003906,9.559514,,,
12166941000,0.999634,-0.015991,0.015442,-0.016663,0.019531,-0.046875,0.035156,9.573238,,,
12186854000,0.999634,-0.015686,0.015076,-0.016907,0.050781,0.074219,-0.042969,9.593151,,,
12216918000,0.999634,-0.014709,0.013977,-0.019165,0.878906,0.441406,0.035156,9.623215,,,
12237326000,0.999573,-0.013672,0.012817,-0.022522,1.246094,0.121094,0.070312,9.643623,,,
12246296000,0.999573,-0.013733,0.011536,-0.023987,1.460938,0.066406,-0.195312,9.652593,,,
12278203000,0.999512,-0.013855,0.006531,-0.027039,1.160156,0.351562,-0.3125,9.6845,,,
12284693000,0.999512,-0.010071,0.004089,-0.02887,1.242188,0.117188,-0.242188,9.69099,,,
12311338000,0.999451,-0.005432,-0.000244,-0.032471,0.238281,1.234375,-1.046875,9.717635,,,
12324516000,0.99939,-0.005676,-0.001526,-0.033813,0.367188,-0.042969,0.410156,9.730813,,,
12345462000,0.999329,-0.00592,-0.002625,-0.035217,0.902344,0.238281,-0.359375,9.751759,,,
12365631000,0.999207,-0.006897,-0.003845,-0.038635,-0.230469,-0.472656,-0.242188,9.771928,,,
12385770000,0.999084,-0.005615,-0.005493,-0.042358,-1.789062,-1.460938,1.441406,9.792067,,,
12413616000,0.998962,-0.002258,-0.006714,-0.045044,0.527344,0.789062,-1.046875,9.819913,,,
12426244000,0.998718,-0.0047,-0.009033,-0.049377,-0.457031,-0.320312,-0.050781,9.832541,,,
12446405000,0.998657,-0.005188,-0.010681,-0.050171,0.355469,-0.160156,-0.050781,9.852702,,,
12476270000,0.998596,-0.006897,-0.012451,-0.050842,-0.257812,-0.167969,0.070312,9.882567,,,
12485923000,0.998596,-0.006653,-0.012756,-0.050842,-0.464844,-0.003906,-0.121094,9.89222,,,
12506579000,0.998596,-0.006165,-0.012512,-0.050781,0.324219,0.023438,-0.417969,9.912876,,,
12526109000,0.998657,-0.005188,-0.011719,-0.050049,-0.234375,-0.183594,0.003906,9.932406,,,
12556031000,0.99884,-0.002808,-0.009766,-0.047363,-0.386719,0.007812,-0.152344,9.962328,,,
12565605000,0.998901,-0.001587,-0.008606,-0.045837,-0.296875,0.070312,-0.121094,9.971902,,,
12586130000,0.999084,0.001709,-0.005981,-0.042419,-0.394531,0.097656,0.035156,9.992427,,,
12606178000,0.999207,0.005127,-0.003601,-0.039062,-0.835938,0.296875,-0.003906,10.012475,,,
12625833000,0.999329,0.00708,-0.001709,-0.035889,-0.988281,-0.054688,0.109375,10.03213,,,
12645788000,0.99939,0.007996,-0.00061,-0.033691,-0.730469,-0.085938,0.070312,10.052085,,,
12675098000,0.999451,0.007568,-0.000183,-0.032288,-0.890625,0.027344,-0.082031,10.081395,,,
12685363000,0.999451,0.007324,0.0,-0.031982,-0.890625,0.105469,-0.082031,10.09166,,,
12705708000,0.999512,0.007019,0.000732,-0.031128,-0.078125,0.042969,-0.042969,10.112005,,,
12725782000,0.999512,0.00647,0.002319,-0.029541,-0.023438,-0.101562,0.070312,10.132079,,,
12756044000,0.999634,0.006714,0.004395,-0.026367,-0.160156,0.058594,-0.082031,10.162341,,,
12765274000,0.999634,0.006714,0.004333,-0.025879,-0.035156,0.128906,-0.121094,10.171571,,,
12785977000,0.999634,0.006592,0.003723,-0.025391,0.382812,-0.027344,-0.042969,10.192274,,,
12806032000,0.999634,0.006653,0.003113,-0.025024,0.484375,-0.101562,0.035156,10.212329,,,
12826125000,0.999634,0.006409,0.003296,-0.025024,0.90625,0.050781,0.035156,10.232422,,,
12850335000,0.999634,0.006165,0.004211,-0.025452,0.523438,0.171875,-0.003906,10.256632,,,
12865534000,0.999634,0.006348,0.005371,-0.026184,0.046875,0.136719,-0.003906,10.271831,,,
12885477000,0.999573,0.005859,0.006775,-0.027344,0.015625,0.019531,-0.003906,10.291774,,,
12905380000,0.999512,0.006104,0.007874,-0.028809,-0.066406,-0.164062,0.148438,10.311677,,,
12934877000,0.999451,0.007568,0.007812,-0.030884,-0.339844,-0.246094,-0.464844,10.341174,,,
12949260000,0.999451,0.00769,0.007751,-0.031494,0.769531,0.503906,-0.042969,10.355557,,,
12965211000,0.999451,0.007996,0.00769,-0.031677,0.617188,-0.234375,-0.226562,10.371508,,,
12985355000,0.999451,0.007263,0.00824,-0.030884,0.109375,0.179688,-0.074219,10.391652,,,
13005670000,0.999512,0.004822,0.009155,-0.029968,-0.257812,-0.148438,0.195312,10.411967,,,
13034853000,0.999512,0.001282,0.010071,-0.028687,-1.230469,0.136719,-0.226562,10.44115,,,
13044166000,0.999512,-6.1e-05,0.010437,-0.028442,-0.839844,0.054688,0.117188,10.450463,,,
13065638000,0.999573,-0.001404,0.010742,-0.028137,-0.984375,0.0,0.003906,10.471935,,,
13094285000,0.999512,-0.001892,0.011169,-0.028259,-0.058594,0.039062,-0.035156,10.500582,,,
13104127000,0.999512,-0.002197,0.011414,-0.028259,-0.058594,0.0,0.003906,10.510424,,,
13127122000,0.999512,-0.002869,0.011902,-0.028259,-0.042969,-0.03125,0.042969,10.533419,,,
13145414000,0.999512,-0.003906,0.012634,-0.028198,-0.070312,0.023438,0.085938,10.551711,,,
13174351000,0.999573,-0.003845,0.012756,-0.026428,-0.277344,-0.488281,-0.296875,10.580648,,,
13184133000,0.999573,-0.004028,0.012878,-0.025635,0.335938,-0.417969,0.050781,10.59043,,,
13205370000,0.999634,-0.006287,0.01416,-0.023438,-0.011719,0.15625,0.355469,10.611667,,,
13225394000,0.999634,-0.007202,0.014282,-0.021729,1.046875,-0.179688,0.203125,10.631691,,,
13253986000,0.999634,-0.008728,0.01532,-0.020386,0.074219,-0.097656,-0.910156,10.660283,,,
13264149000,0.999634,-0.00946,0.015686,-0.020142,0.726562,0.027344,0.433594,10.670446,,,
13285391000,0.999634,-0.01062,0.016357,-0.02002,0.007812,0.457031,0.203125,10.691688,,,
13313375000,0.999573,-0.01178,0.017273,-0.020142,-0.046875,0.113281,0.125,10.719672,,,
13324549000,0.999573,-0.012024,0.017578,-0.020569,-0.152344,0.121094,-0.144531,10.730846,,,
13353317000,0.999573,-0.012146,0.018188,-0.020752,1.085938,-0.179688,-0.296875,10.759614,,,
13373141000,0.999512,-0.01239,0.018555,-0.020874,-0.09375,0.089844,0.125,10.779438,,,
13393444000,0.999512,-0.012512,0.018738,-0.020874,0.175781,0.019531,-0.066406,10.799741,,,
13416531000,0.999512,-0.012634,0.018921,-0.020813,-0.007812,-0.054688,0.011719,10.822828,,,
13434205000,0.999512,-0.013,0.019531,-0.020996,0.078125,0.144531,0.242188,10.840502,,,
13453157000,0.999451,-0.013672,0.020386,-0.021484,0.015625,0.226562,-0.066406,10.859454,,,
13473369000,0.999451,-0.013855,0.02063,-0.022095,0.300781,-0.261719,-0.257812,10.879666,,,
13494515000,0.999451,-0.013855,0.020264,-0.022766,-0.007812,-0.023438,-0.027344,10.900812,,,
13517841000,0.999451,-0.013611,0.019592,-0.02301,-0.292969,-0.378906,-0.058594,10.924138,,,
13532944000,0.999512,-0.013184,0.018433,-0.022583,0.039062,-0.269531,-0.171875,10.939241,,,
13553297000,0.999512,-0.01239,0.017334,-0.021545,0.007812,-0.238281,0.394531,10.959594,,,
13572563000,0.999573,-0.012329,0.016968,-0.020996,-0.160156,0.546875,0.355469,10.97886,,,
13593186000,0.999573,-0.01239,0.017029,-0.020996,0.03125,-0.027344,-0.105469,10.999483,,,
13612446000,0.999573,-0.012451,0.017029,-0.021057,-0.007812,0.011719,0.125,11.018743,,,
13632310000,0.999573,-0.012451,0.017029,-0.020996,-0.007812,-0.019531,0.011719,11.038607,,,
13653016000,0.999573,-0.012451,0.016968,-0.020996,-0.007812,-0.027344,0.050781,11.059313,,,
13672085000,0.999573,-0.012451,0.016968,-0.020996,-0.007812,0.011719,0.050781,11.078382,,,
13692256000,0.999573,-0.012512,0.016968,-0.020996,-0.007812,-0.027344,0.011719,11.098553,,,
13712164000,0.999573,-0.012451,0.016968,-0.020996,-0.007812,-0.027344,0.050781,11.118461,,,
13733328000,0.999573,-0.012451,0.016968,-0.020996,-0.007812,0.011719,0.011719,11.139625,,,
13751825000,0.999573,-0.012451,0.016968,-0.021057,-0.007812,0.011719,-0.027344,11.158122,,,
13772728000,0.999573,-0.012451,0.016968,-0.020996,-0.007812,-0.027344,0.011719,11.179025,,,
13792304000,0.999573,-0.012451,0.016968,-0.021057,-0.007812,0.011719,0.011719,11.198601,,,
13812492000,0.999573,-0.012451,0.016968,-0.021057,-0.007812,-0.027344,0.011719,11.218789,,,
13837283000,0.999573,-0.012451,0.016968,-0.021057,0.0,-0.019531,0.011719,11.24358,,,
13852170000,0.999573,-0.012451,0.016968,-0.021057,0.0,-0.027344,0.011719,11.258467,,,
13871805000,0.999573,-0.012512,0.016968,-0.021057,0.0,-0.027344,0.011719,11.278102,,,
13891939000,0.999573,-0.012451,0.016968,-0.021057,0.0,-0.027344,0.011719,11.298236,,,
13915127000,0.999573,-0.012451,0.016968,-0.021057,0.0,-0.027344,0.050781,11.321424,,,
13931993000,0.999573,-0.012451,0.016968,-0.021057,0.0,0.027344,-0.050781,11.33829,,,
13952331000,0.999573,-0.012451,0.016968,-0.021057,0.0,0.027344,-0.011719,11.358628,,,
13971613000,0.999573,-0.01239,0.016968,-0.021057,0.0,-0.011719,-0.011719,11.37791,,,
13996675000,0.999573,-0.01239,0.016968,-0.021057,0.0,0.027344,0.027344,11.402972,,,
14011587000,0.999573,-0.01239,0.016968,-0.021057,0.0,-0.011719,-0.011719,11.417884,,,
14031763000,0.999573,-0.012451,0.016968,-0.021057,0.0,-0.011719,-0.011719,11.43806,,,
14051697000,0.999573,-0.01239,0.016968,-0.021057,0.0,0.027344,0.027344,11.457994,,,
14071864000,0.999573,-0.01239,0.016968,-0.021057,0.0,0.027344,-0.011719,11.478161,,,
14091182000,0.999573,-0.01239,0.016968,-0.021057,0.0,-0.011719,0.027344,11.497479,,,
14111925000,0.999573,-0.01239,0.016968,-0.021057,0.0,-0.011719,-0.011719,11.518222,,,
14131609000,0.999573,-0.01239,0.016968,-0.021057,0.0,-0.011719,-0.011719,11.537906,,,
14155675000,0.999573,-0.01239,0.016968,-0.021057,0.0,0.027344,-0.011719,11.561972,,,
14170976000,0.999573,-0.01239,0.016968,-0.021057,0.0,0.027344,-0.011719,11.577273,,,
14191763000,0.999573,-0.01239,0.016968,-0.021057,0.0,-0.011719,0.027344,11.59806,,,
14211069000,0.999573,-0.01239,0.016968,-0.021057,0.0,-0.011719,0.027344,11.617366,,,
14233204000,0.999573,-0.012451,0.016968,-0.021057,0.0,0.027344,-0.011719,11.639501,,,
14257997000,0.999573,-0.012451,0.016968,-0.021057,0.0,0.027344,-0.011719,11.664294,,,
14270819000,0.999573,-0.01239,0.016968,-0.021057,0.0,0.027344,-0.011719,11.677116,,,
14290742000,0.999573,-0.012451,0.016968,-0.021057,0.0,-0.011719,-0.011719,11.697039,,,
14310804000,0.999573,-0.012451,0.016968,-0.021057,0.0,0.027344,-0.011719,11.717101,,,
14333383000,0.999573,-0.012451,0.016968,-0.021057,0.0,0.019531,-0.011719,11.73968,,,
14350826000,0.999573,-0.012451,0.016968,-0.021057,0.0,-0.019531,-0.003906,11.757123,,,
14371316000,0.999573,-0.012451,0.016968,-0.021057,0.0,-0.019531,-0.003906,11.777613,,,
14390375000,0.999573,-0.012451,0.016968,-0.021057,0.0,-0.019531,-0.003906,11.796672,,,
14415379000,0.999573,-0.012512,0.016968,-0.021057,0.0,-0.019531,-0.003906,11.821676,,,
14431017000,0.999573,-0.012512,0.016968,-0.021057,0.0,-0.011719,-0.003906,11.837314,,,
14450592000,0.999573,-0.012451,0.016968,-0.021057,0.0,-0.011719,-0.003906,11.856889,,,
14471129000,0.999573,-0.012512,0.016968,-0.021057,0.0,-0.011719,-0.003906,11.877426,,,
14490578000,0.999573,-0.012512,0.016968,-0.021118,0.0,-0.011719,-0.042969,11.896875,,,
14510021000,0.999573,-0.012512,0.016968,-0.021118,0.0,-0.019531,-0.003906,11.916318,,,
14530196000,0.999573,-0.012512,0.016968,-0.021057,0.0,-0.019531,-0.003906,11.936493,,,
14551630000,0.999573,-0.012512,0.016968,-0.021118,0.0,-0.019531,-0.042969,11.957927,,,
14569577000,0.999573,-0.012573,0.016968,-0.021057,0.0,-0.003906,0.035156,11.975874,,,
14589915000,0.999573,-0.012573,0.016968,-0.021057,-0.039062,-0.011719,-0.003906,11.996212,,,
14609677000,0.999573,-0.012573,0.016907,-0.021057,0.0,0.027344,0.035156,12.015974,,,
14630895000,0.999573,-0.012512,0.016907,-0.021057,0.0,0.027344,-0.003906,12.037192,,,
14654137000,0.999573,-0.012512,0.016907,-0.021057,0.0,-0.011719,-0.042969,12.060434,,,
14669833000,0.999573,-0.012512,0.016907,-0.021057,0.0,0.027344,-0.003906,12.07613,,,
14689577000,0.999573,-0.012573,0.016907,-0.021057,0.0,0.019531,0.035156,12.095874,,,
14710406000,0.999573,-0.012573,0.016907,-0.021057,0.0,0.019531,-0.003906,12.116703,,,
14734624000,0.999573,-0.012573,0.016907,-0.021057,0.0,0.019531,-0.003906,12.140921,,,
14750022000,0.999573,-0.012573,0.016907,-0.021057,0.0,0.019531,-0.003906,12.156319,,,
14769552000,0.999573,-0.012573,0.016907,-0.021057,0.0,-0.019531,-0.003906,12.175849,,,
14789603000,0.999573,-0.012573,0.016846,-0.021057,0.0,-0.019531,-0.003906,12.1959,,,
14812957000,0.999573,-0.012573,0.016846,-0.021057,0.039062,0.011719,0.042969,12.219254,,,
14829635000,0.999573,-0.012634,0.016846,-0.021057,0.0,0.019531,-0.003906,12.235932,,,
14849132000,0.999573,-0.012573,0.016846,-0.021057,0.0,-0.019531,0.035156,12.255429,,,
14868764000,0.999573,-0.012634,0.016846,-0.021057,0.0,0.019531,-0.003906,12.275061,,,
14890088000,0.999573,-0.012573,0.016846,-0.020996,0.0,0.019531,-0.003906,12.296385,,,
14908814000,0.999573,-0.012573,0.016846,-0.020996,0.0,0.019531,-0.003906,12.315111,,,
14929200000,0.999573,-0.012573,0.016846,-0.021057,0.0,-0.027344,-0.003906,12.335497,,,
14949312000,0.999573,-0.012573,0.016846,-0.020996,0.0,0.019531,-0.003906,12.355609,,,
14975249000,0.999573,-0.012573,0.016846,-0.020996,0.0,-0.019531,-0.003906,12.381546,,,
14989143000,0.999573,-0.012573,0.016846,-0.020996,0.0,0.019531,-0.003906,12.39544,,,
15009378000,0.999573,-0.012573,0.016846,-0.020996,0.0,-0.019531,-0.003906,12.415675,,,
15028835000,0.999573,-0.012573,0.016846,-0.020996,0.0,-0.019531,-0.003906,12.435132,,,
15052519000,0.999573,-0.012573,0.016846,-0.020996,0.039062,0.019531,-0.003906,12.458816,,,
15068680000,0.999573,-0.012573,0.016846,-0.020996,0.039062,0.019531,-0.003906,12.474977,,,
15089127000,0.999573,-0.012573,0.016846,-0.020996,0.0,-0.019531,-0.003906,12.495424,,,
15108405000,0.999573,-0.012573,0.016846,-0.020996,0.0,-0.019531,0.035156,12.514702,,,
15128921000,0.999573,-0.012573,0.016846,-0.020996,0.0,-0.019531,-0.042969,12.535218,,,
15148711000,0.999573,-0.012573,0.016846,-0.020996,0.0,-0.019531,-0.003906,12.555008,,,
15173758000,0.999573,-0.012573,0.016846,-0.020996,0.0,0.019531,-0.042969,12.580055,,,
15188570000,0.999573,-0.012573,0.016846,-0.020996,0.0,0.019531,-0.003906,12.594867,,,
15207978000,0.999573,-0.012573,0.016846,-0.020996,0.0,-0.019531,-0.003906,12.614275,,,
15227965000,0.999573,-0.012573,0.016846,-0.020996,0.0,0.019531,-0.003906,12.634262,,,
15249333000,0.999573,-0.012573,0.016846,-0.020996,0.0,0.019531,-0.003906,12.65563,,,
15272596000,0.999573,-0.012573,0.016846,-0.020996,0.0,-0.019531,-0.042969,12.678893,,,
15288361000,0.999573,-0.012573,0.016846,-0.020996,0.039062,-0.019531,-0.003906,12.694658,,,
15308410000,0.999573,-0.012573,0.016846,-0.020996,0.0,-0.019531,-0.003906,12.714707,,,
15327524000,0.999573,-0.012573,0.016846,-0.020996,0.0,0.019531,0.035156,12.733821,,,
15351991000,0.999573,-0.012573,0.016846,-0.020996,0.0,0.019531,0.035156,12.758288,,,
15373101000,0.999573,-0.012573,0.016846,-0.020996,0.0,-0.019531,-0.003906,12.779398,,,
15387942000,0.999573,-0.012573,0.016846,-0.020996,0.0,-0.019531,-0.003906,12.794239,,,
15418042000,0.999573,-0.012573,0.016846,-0.020996,0.0,-0.019531,-0.003906,12.824339,,,
15429959000,0.999573,-0.012573,0.016846,-0.020996,0.0,-0.019531,-0.003906,12.836256,,,
15447500000,0.999573,-0.012573,0.016846,-0.020996,0.0,-0.019531,-0.003906,12.853797,,,
15467463000,0.999573,-0.012573,0.016846,-0.020996,0.0,0.019531,-0.003906,12.87376,,,
15487485000,0.999573,-0.012573,0.016846,-0.020996,0.0,-0.019531,-0.003906,12.893782,,,
15517842000,0.999573,-0.012573,0.016846,-0.020996,0.0,-0.019531,0.035156,12.924139,,,
15527205000,0.999573,-0.012573,0.016846,-0.020996,-0.007812,-0.019531,-0.003906,12.933502,,,
15546952000,0.999573,-0.012573,0.016846,-0.020996,-0.007812,-0.019531,-0.003906,12.953249,,,
15567431000,0.999573,-0.012573,0.016846,-0.020996,0.03125,-0.019531,-0.003906,12.973728,,,
15597634000,0.999573,-0.012573,0.016846,-0.020996,-0.007812,-0.019531,-0.003906,13.003931,,,
15612282000,0.999573,-0.012573,0.016846,-0.020996,-0.007812,-0.019531,-0.003906,13.018579,,,
15626991000,0.999573,-0.012573,0.016846,-0.020996,-0.007812,-0.019531,-0.003906,13.033288,,,
15647611000,0.999573,-0.012573,0.016846,-0.020996,-0.007812,-0.019531,0.035156,13.053908,,,
15667087000,0.999573,-0.012573,0.016846,-0.020996,-0.007812,0.027344,-0.003906,13.073384,,,
15696460000,0.999573,-0.012573,0.016846,-0.020996,-0.007812,-0.011719,-0.003906,13.102757,,,
15706686000,0.999573,-0.012573,0.016846,-0.020996,-0.007812,-0.011719,-0.003906,13.112983,,,
15727506000,0.999573,-0.012573,0.016846,-0.020996,-0.007812,-0.011719,-0.003906,13.133803,,,
15756787000,0.999573,-0.012573,0.016846,-0.020996,-0.007812,0.027344,0.035156,13.163084,,,
15766800000,0.999573,-0.012573,0.016846,-0.020996,-0.007812,-0.011719,-0.003906,13.173097,,,
15788130000,0.999573,-0.012573,0.016846,-0.020996,0.0,0.027344,-0.003906,13.194427,,,
15806565000,0.999573,-0.012573,0.016846,-0.020996,0.0,0.027344,-0.003906,13.212862,,,
15836988000,0.999573,-0.012573,0.016846,-0.020996,0.0,-0.011719,-0.003906,13.243285,,,
15846179000,0.999573,-0.012573,0.016846,-0.020996,0.0,0.027344,0.035156,13.252476,,,
15866956000,0.999573,-0.012573,0.016846,-0.020996,0.0,-0.011719,-0.003906,13.273253,,,
15886578000,0.999573,-0.012573,0.016846,-0.020996,-0.007812,0.019531,-0.003906,13.292875,,,
15916267000,0.999573,-0.012573,0.016846,-0.020996,-0.007812,-0.019531,-0.003906,13.322564,,,
15926312000,0.999573,-0.012573,0.016846,-0.020996,-0.007812,-0.019531,-0.003906,13.332609,,,
15947000000,0.999573,-0.012573,0.016846,-0.020996,0.03125,0.019531,-0.003906,13.353297,,,
15966506000,0.999573,-0.012573,0.016846,-0.020996,-0.007812,-0.019531,-0.003906,13.372803,,,
15987939000,0.999573,-0.012573,0.016846,-0.020996,-0.007812,-0.019531,0.035156,13.394236,,,
16006165000,0.999573,-0.012573,0.016846,-0.020996,-0.007812,-0.011719,-0.003906,13.412462,,,
16026597000,0.999573,-0.012573,0.016846,-0.020996,-0.007812,0.019531,-0.003906,13.432894,,,
16046233000,0.999573,-0.012573,0.016846,-0.020996,-0.007812,-0.019531,-0.011719,13.45253,,,
16066534000,0.999573,-0.012573,0.016846,-0.020996,-0.007812,0.019531,0.027344,13.472831,,,
16086575000,0.999573,-0.012573,0.016846,-0.020996,0.03125,-0.019531,-0.011719,13.492872,,,
16110263000,0.999573,-0.012573,0.016846,-0.020996,-0.007812,0.019531,-0.011719,13.51656,,,
16126314000,0.999573,-0.012573,0.016846,-0.020996,0.03125,0.019531,-0.011719,13.532611,,,
16145949000,0.999573,-0.012573,0.016846,-0.020996,-0.007812,0.019531,-0.011719,13.552246,,,
16166242000,0.999573,-0.012573,0.016846,-0.020996,-0.007812,-0.019531,0.027344,13.572539,,,
16195470000,0.999573,-0.012573,0.016846,-0.020996,-0.007812,-0.019531,0.027344,13.601767,,,
16211372000,0.999573,-0.012573,0.016846,-0.020996,0.03125,-0.019531,-0.011719,13.617669,,,
16225924000,0.999573,-0.012573,0.016846,-0.020996,-0.007812,0.019531,0.027344,13.632221,,,
16246001000,0.999573,-0.012573,0.016846,-0.020996,-0.007812,-0.019531,0.027344,13.652298,,,
16265960000,0.999573,-0.012573,0.016846,-0.020996,-0.007812,0.019531,-0.011719,13.672257,,,
16295052000,0.999573,-0.012573,0.016846,-0.020996,-0.007812,-0.019531,0.027344,13.701349,,,
16305369000,0.999573,-0.012573,0.016846,-0.020996,-0.007812,-0.019531,0.027344,13.711666,,,
16325912000,0.999573,-0.012634,0.016846,-0.020996,0.03125,-0.019531,0.027344,13.732209,,,
16345759000,0.999573,-0.012634,0.016907,-0.020996,-0.007812,0.019531,-0.011719,13.752056,,,
16367345000,0.999573,-0.013123,0.017151,-0.020935,-0.007812,-0.019531,-0.011719,13.773642,,,
16389621000,0.999573,-0.013123,0.017212,-0.020935,-0.007812,-0.046875,-0.097656,13.795918,,,
16406413000,0.999573,-0.013,0.017212,-0.020935,0.0,-0.011719,0.019531,13.81271,,,
16425911000,0.999573,-0.013123,0.017273,-0.020935,0.0,0.027344,0.054688,13.832208,,,
16445770000,0.999573,-0.013062,0.017334,-0.020935,0.0,-0.011719,0.019531,13.852067,,,
16465405000,0.999573,-0.013,0.017395,-0.020874,0.0,0.027344,0.019531,13.871702,,,
16485328000,0.999573,-0.012817,0.017273,-0.020874,0.0,0.027344,0.019531,13.891625,,,
16515052000,0.999573,-0.012268,0.017151,-0.020874,-0.007812,-0.054688,-0.058594,13.921349,,,
16525286000,0.999573,-0.012207,0.017029,-0.020813,0.03125,-0.027344,-0.097656,13.931583,,,
16554480000,0.999573,-0.012268,0.016907,-0.018982,0.472656,-0.515625,0.101562,13.960777,,,
16564790000,0.999634,-0.012146,0.016602,-0.018311,0.082031,-0.285156,-0.394531,13.971087,,,
16585978000,0.999695,-0.010559,0.015259,-0.017578,0.640625,-0.171875,-0.585938,13.992275,,,
16605342000,0.999695,-0.009766,0.013672,-0.01709,0.394531,-0.195312,-0.167969,14.011639,,,
16626976000,0.999756,-0.010986,0.013367,-0.015442,0.578125,0.609375,-0.550781,14.033273,,,
16650210000,0.999817,-0.008789,0.011414,-0.012878,0.304688,-0.085938,-0.472656,14.056507,,,
16665723000,0.999878,-0.006714,0.008789,-0.010742,1.128906,0.433594,-0.058594,14.07202,,,
16685717000,0.999939,-0.001404,0.007019,-0.009888,0.800781,0.292969,0.59375,14.092014,,,
16705032000,0.999939,0.006958,0.005188,-0.010254,0.875,0.269531,0.515625,14.111329,,,
16725662000,0.999878,0.010559,0.002991,-0.012146,0.492188,0.335938,-0.210938,14.131959,,,
16745525000,0.999878,0.008301,0.000854,-0.014771,-1.507812,0.210938,-0.367188,14.151822,,,
16774239000,0.999756,0.006409,-0.00293,-0.020264,-0.222656,-0.246094,-0.058594,14.180536,,,
16784121000,0.999756,0.005371,-0.003845,-0.022034,-0.589844,-0.1875,-0.019531,14.190418,,,
16805482000,0.999634,0.005493,-0.005432,-0.024841,-0.300781,-0.285156,0.210938,14.211779,,,
16825429000,0.999573,0.006287,-0.006348,-0.027283,0.65625,-0.09375,-0.058594,14.231726,,,
16845557000,0.999512,0.005737,-0.006531,-0.029175,-0.203125,0.378906,-0.136719,14.251854,,,
16865191000,0.999512,0.00531,-0.006714,-0.030457,-0.546875,0.121094,-0.097656,14.271488,,,
16885617000,0.999512,0.004639,-0.00708,-0.030579,-0.585938,0.136719,-0.058594,14.291914,,,
16905400000,0.999512,0.003357,-0.00769,-0.029785,-0.332031,0.257812,-0.210938,14.311697,,,
16933626000,0.999634,0.003052,-0.007751,-0.026062,0.714844,0.328125,1.902344,14.339923,,,
16944095000,0.999695,0.003235,-0.007202,-0.02417,0.300781,0.066406,-0.058594,14.350392,,,
16965350000,0.999756,0.003845,-0.00592,-0.020508,0.195312,0.25,-0.210938,14.371647,,,
16993788000,0.999878,0.005554,-0.003174,-0.016235,-0.308594,0.21875,0.09375,14.400085,,,
17013036000,0.999878,0.008362,-0.001404,-0.014465,-0.277344,-0.085938,0.324219,14.419333,,,
17033229000,0.999878,0.009155,-0.000122,-0.014099,-0.78125,0.019531,0.285156,14.439526,,,
17044139000,0.999878,0.009155,0.000183,-0.014038,-1.15625,-0.410156,-0.097656,14.450436,,,
17065401000,0.999878,0.009277,0.000977,-0.01416,-0.527344,-0.371094,-0.210938,14.471698,,,
17093649000,0.999817,0.009644,0.001953,-0.014587,-0.121094,0.28125,-0.019531,14.499946,,,
17114252000,0.999817,0.010071,0.002502,-0.015137,-0.875,0.050781,-0.050781,14.520549,,,
17133108000,0.999817,0.010254,0.002747,-0.015991,-0.253906,0.074219,-0.203125,14.539405,,,
17144118000,0.999817,0.01001,0.002686,-0.016602,-0.214844,0.082031,-0.128906,14.550415,,,
17173579000,0.999817,0.008667,0.002563,-0.017761,-0.097656,-0.09375,0.027344,14.579876,,,
17192782000,0.999817,0.006836,0.003296,-0.0177,-0.097656,0.121094,0.101562,14.599079,,,
17212995000,0.999817,0.004517,0.004639,-0.017517,-0.414062,0.144531,0.140625,14.619292,,,
17224356000,0.999817,0.004639,0.005066,-0.017395,-0.558594,-0.109375,0.0625,14.630653,,,
17252815000,0.999817,0.002869,0.006714,-0.0177,-0.488281,0.25,-0.167969,14.659112,,,
17264087000,0.999817,0.001648,0.007446,-0.018066,-0.402344,0.039062,0.0625,14.670384,,,
17292936000,0.999756,-0.00177,0.009644,-0.019897,-0.042969,-0.121094,0.101562,14.699233,,,
17312940000,0.999695,-0.003601,0.010193,-0.021301,0.011719,-0.351562,0.140625,14.719237,,,
17332667000,0.999695,-0.0047,0.010498,-0.021851,-0.316406,0.179688,0.101562,14.738964,,,
17352448000,0.999695,-0.005432,0.010681,-0.021973,-0.089844,0.117188,-0.050781,14.758745,,,
17377709000,0.999695,-0.005859,0.010803,-0.021973,-0.082031,-0.019531,0.027344,14.784006,,,
17391871000,0.999695,-0.005737,0.01062,-0.021973,-0.042969,-0.089844,0.070312,14.798168,,,
17412087000,0.999695,-0.00592,0.010742,-0.021973,-0.042969,0.132812,-0.011719,14.818384,,,
17432242000,0.999695,-0.006165,0.010925,-0.021973,-0.082031,0.027344,-0.003906,14.838539,,,
17456048000,0.999695,-0.007141,0.01123,-0.021973,-0.042969,0.148438,-0.050781,14.862345,,,
17472320000,0.999634,-0.008911,0.012024,-0.021973,0.011719,0.125,0.027344,14.878617,,,
17492543000,0.999573,-0.012451,0.013306,-0.021912,-0.042969,0.148438,0.070312,14.89884,,,
17511943000,0.999634,-0.011658,0.013,-0.021912,-0.21875,-0.070312,-0.886719,14.91824,,,
17535553000,0.999573,-0.012207,0.013184,-0.021912,0.011719,0.210938,-0.042969,14.94185,,,
17551697000,0.999573,-0.012085,0.013123,-0.021851,-0.0625,0.066406,0.070312,14.957994,,,
17571509000,0.999573,-0.012146,0.013184,-0.021851,-0.0625,0.027344,0.035156,14.977806,,,
17591502000,0.999573,-0.012268,0.013245,-0.021851,-0.0625,0.066406,0.035156,14.997799,,,
17615429000,0.999573,-0.012268,0.013184,-0.021851,-0.0625,-0.011719,-0.003906,15.021726,,,
17633202000,0.999573,-0.012268,0.013184,-0.021851,-0.0625,-0.011719,-0.003906,15.039499,,,
17651873000,0.999573,-0.012268,0.013245,-0.021912,-0.0625,0.027344,0.035156,15.05817,,,
17671966000,0.999573,-0.012268,0.013245,-0.021851,-0.0625,0.027344,-0.003906,15.078263,,,
17693660000,0.999573,-0.012329,0.013245,-0.021912,-0.0625,0.027344,-0.003906,15.099957,,,
17711662000,0.999573,-0.012329,0.013245,-0.021912,-0.054688,0.027344,-0.003906,15.117959,,,
17733735000,0.999573,-0.012268,0.013306,-0.021912,-0.054688,-0.011719,-0.003906,15.140032,,,
17751615000,0.999573,-0.012329,0.013306,-0.021912,-0.054688,0.027344,0.035156,15.157912,,,
17771352000,0.999573,-0.012329,0.013306,-0.021912,-0.054688,0.027344,-0.003906,15.177649,,,
17793733000,0.999573,-0.012329,0.013306,-0.021912,-0.054688,-0.011719,-0.003906,15.20003,,,
17811481000,0.999573,-0.01239,0.013306,-0.021851,-0.09375,-0.011719,0.035156,15.217778,,,
17830749000,0.999573,-0.01239,0.013306,-0.021851,-0.054688,-0.011719,-0.003906,15.237046,,,
17850864000,0.999573,-0.01239,0.013306,-0.021851,-0.046875,-0.011719,-0.003906,15.257161,,,
17874074000,0.999573,-0.01239,0.013306,-0.021851,-0.046875,0.027344,0.035156,15.280371,,,
17891793000,0.999573,-0.012329,0.013367,-0.021851,-0.007812,0.019531,-0.011719,15.29809,,,
17911101000,0.999573,-0.01239,0.013367,-0.021851,-0.007812,0.019531,-0.011719,15.317398,,,
17931118000,0.999573,-0.01239,0.013367,-0.021851,0.027344,-0.019531,0.027344,15.337415,,,
17951314000,0.999573,-0.01239,0.013367,-0.021851,0.027344,0.019531,-0.011719,15.357611,,,
17970816000,0.999573,-0.01239,0.013367,-0.021851,-0.007812,-0.019531,0.027344,15.377113,,,
17990868000,0.999573,-0.01239,0.013367,-0.021851,-0.007812,0.019531,-0.011719,15.397165,,,
18010911000,0.999573,-0.01239,0.013367,-0.021851,-0.007812,-0.019531,-0.011719,15.417208,,,
18030346000,0.999573,-0.01239,0.013367,-0.021851,-0.007812,-0.019531,-0.011719,15.436643,,,
18060484000,0.999573,-0.01239,0.013367,-0.021851,-0.007812,-0.019531,0.027344,15.466781,,,
18075294000,0.999573,-0.012329,0.013428,-0.021851,-0.007812,0.019531,0.027344,15.481591,,,
18090289000,0.999573,-0.01239,0.013428,-0.021851,0.027344,0.019531,0.027344,15.496586,,,
18110078000,0.999573,-0.01239,0.013428,-0.021851,0.027344,0.019531,-0.011719,15.516375,,,
18130663000,0.999573,-0.01239,0.013428,-0.021851,0.027344,-0.019531,-0.011719,15.53696,,,
18155346000,0.999573,-0.012451,0.013428,-0.021851,-0.007812,-0.019531,-0.011719,15.561643,,,
18170101000,0.999573,-0.012451,0.013428,-0.021851,-0.007812,-0.019531,-0.011719,15.576398,,,
18190013000,0.999573,-0.012451,0.013428,-0.02179,0.027344,-0.019531,-0.011719,15.59631,,,
18210168000,0.999573,-0.012451,0.013428,-0.02179,-0.007812,-0.019531,-0.011719,15.616465,,,
18234916000,0.999573,-0.012451,0.013428,-0.02179,-0.007812,-0.019531,-0.011719,15.641213,,,
18250133000,0.999573,-0.012451,0.013428,-0.02179,-0.007812,0.019531,-0.050781,15.65643,,,
18269949000,0.999573,-0.012451,0.013428,-0.02179,-0.007812,0.019531,0.035156,15.676246,,,
18289736000,0.999573,-0.012451,0.013428,-0.02179,-0.007812,-0.019531,-0.003906,15.696033,,,
18311875000,0.999573,-0.012451,0.013428,-0.02179,-0.007812,-0.019531,0.035156,15.718172,,,
18334089000,0.999573,-0.012451,0.013428,-0.02179,-0.007812,-0.019531,-0.003906,15.740386,,,
18349450000,0.999573,-0.012451,0.013428,-0.02179,-0.007812,-0.019531,0.035156,15.755747,,,
18369378000,0.999573,-0.012451,0.013428,-0.02179,0.027344,-0.019531,-0.042969,15.775675,,,
18390105000,0.999573,-0.01239,0.013428,-0.02179,-0.007812,-0.019531,-0.003906,15.796402,,,
18411139000,0.999573,-0.01239,0.013489,-0.02179,-0.007812,-0.019531,-0.003906,15.817436,,,
18433691000,0.999573,-0.012451,0.013428,-0.02179,-0.007812,-0.019531,-0.003906,15.839988,,,
18450591000,0.999573,-0.012451,0.013428,-0.02179,-0.007812,-0.011719,0.035156,15.856888,,,
18469445000,0.999573,-0.012451,0.013428,-0.02179,-0.007812,-0.011719,-0.003906,15.875742,,,
18489173000,0.999573,-0.012451,0.013428,-0.02179,-0.007812,0.027344,-0.003906,15.89547,,,
18519646000,0.999573,-0.012451,0.013428,-0.021729,-0.007812,0.027344,0.035156,15.925943,,,
18529638000,0.999573,-0.012451,0.013428,-0.021729,-0.007812,-0.011719,0.035156,15.935935,,,
18548934000,0.999573,-0.012451,0.013428,-0.021729,-0.007812,0.027344,0.035156,15.955231,,,
18569146000,0.999573,-0.012451,0.013428,-0.021729,-0.007812,-0.011719,-0.003906,15.975443,,,
18589252000,0.999573,-0.012451,0.013428,-0.021729,-0.007812,-0.011719,-0.003906,15.995549,,,
18608947000,0.999573,-0.012451,0.013428,-0.021729,-0.007812,-0.011719,-0.003906,16.015244,,,
18628907000,0.999573,-0.01239,0.013489,-0.021729,-0.007812,-0.019531,0.035156,16.035204,,,
18649515000,0.999573,-0.01239,0.013489,-0.021729,-0.007812,-0.019531,-0.003906,16.055812,,,
18672339000,0.999573,-0.012451,0.013489,-0.021729,-0.007812,0.019531,-0.003906,16.078636,,,
18688723000,0.999573,-0.01239,0.013489,-0.021729,0.0,-0.019531,-0.003906,16.09502,,,
18708826000,0.999573,-0.01239,0.013489,-0.021729,0.035156,-0.027344,-0.003906,16.115123,,,
18729282000,0.999573,-0.01239,0.013489,-0.021729,0.027344,-0.027344,-0.003906,16.135579,,,
18758920000,0.999573,-0.012329,0.013489,-0.021729,-0.007812,-0.027344,-0.003906,16.165217,,,
18768578000,0.999573,-0.012329,0.013428,-0.021729,-0.007812,-0.027344,-0.003906,16.174875,,,
18788967000,0.999573,-0.012329,0.013428,-0.021729,-0.007812,-0.027344,0.035156,16.195264,,,
18808283000,0.999573,-0.01239,0.013428,-0.021729,-0.007812,-0.027344,-0.003906,16.21458,,,
18828422000,0.999573,-0.012329,0.013489,-0.021729,-0.007812,0.011719,-0.003906,16.234719,,,
18848607000,0.999573,-0.012329,0.013489,-0.021729,-0.007812,-0.027344,0.035156,16.254904,,,
18878023000,0.999573,-0.012329,0.013489,-0.021729,-0.007812,-0.027344,-0.003906,16.28432,,,
18893171000,0.999573,-0.012329,0.013489,-0.021729,-0.007812,0.011719,-0.003906,16.299468,,,
18908741000,0.999573,-0.012329,0.013489,-0.021729,0.027344,0.011719,-0.003906,16.315038,,,
18928172000,0.999573,-0.012329,0.013489,-0.021729,-0.007812,-0.027344,0.035156,16.334469,,,
18949400000,0.999573,-0.012329,0.013489,-0.021729,-0.007812,-0.027344,0.035156,16.355697,,,
18973201000,0.999573,-0.012329,0.013489,-0.021729,0.027344,0.011719,0.035156,16.379498,,,
18987702000,0.999573,-0.012329,0.013489,-0.021729,-0.007812,-0.027344,-0.003906,16.393999,,,
19007474000,0.999573,-0.012329,0.013489,-0.021729,-0.007812,0.011719,0.035156,16.413771,,,
19027711000,0.999573,-0.012329,0.013489,-0.021729,-0.007812,-0.027344,-0.011719,16.434008,,,
19052733000,0.999573,-0.012329,0.013489,-0.021729,0.027344,0.011719,-0.003906,16.45903,,,
19071852000,0.999573,-0.012329,0.013489,-0.021729,0.027344,-0.027344,0.035156,16.478149,,,
19087322000,0.999573,-0.012329,0.013489,-0.021729,0.027344,0.011719,-0.003906,16.493619,,,
19107265000,0.999573,-0.012329,0.013489,-0.021729,0.027344,-0.027344,0.035156,16.513562,,,
19127054000,0.999573,-0.012329,0.013489,-0.021729,0.027344,0.011719,0.035156,16.533351,,,
19147179000,0.999573,-0.012329,0.013489,-0.021729,-0.007812,-0.027344,-0.003906,16.553476,,,
19167224000,0.999573,-0.012329,0.013489,-0.021729,-0.007812,0.019531,0.035156,16.573521,,,
19187091000,0.999573,-0.012329,0.013489,-0.021729,-0.007812,-0.019531,-0.011719,16.593388,,,
19209103000,0.999573,-0.012329,0.013489,-0.021729,-0.007812,0.019531,-0.011719,16.6154,,,
19227008000,0.999573,-0.012329,0.013489,-0.021729,0.027344,-0.019531,-0.011719,16.633305,,,
19247394000,0.999573,-0.012329,0.013489,-0.021729,-0.007812,-0.019531,0.027344,16.653691,,,
19266899000,0.999573,-0.012329,0.013489,-0.021729,-0.007812,-0.019531,0.027344,16.673196,,,
19287767000,0.999573,-0.012329,0.013489,-0.021729,-0.007812,0.019531,0.027344,16.694064,,,
19311455000,0.999573,-0.012329,0.013489,-0.021729,0.027344,0.019531,-0.011719,16.717752,,,
19326928000,0.999573,-0.012329,0.013489,-0.021729,-0.007812,-0.027344,-0.011719,16.733225,,,
19346903000,0.999573,-0.012329,0.013489,-0.021729,-0.007812,-0.027344,-0.011719,16.7532,,,
19367194000,0.999573,-0.012329,0.013489,-0.021729,-0.007812,-0.027344,0.027344,16.773491,,,
19387032000,0.999573,-0.012329,0.013489,-0.021729,-0.007812,-0.027344,-0.011719,16.793329,,,
19407027000,0.999573,-0.012329,0.013489,-0.021729,-0.007812,0.011719,-0.011719,16.813324,,,
19426798000,0.999573,-0.012329,0.013489,-0.021729,-0.007812,0.011719,0.027344,16.833095,,,
19456435000,0.999573,-0.012329,0.013489,-0.021729,0.027344,-0.027344,-0.011719,16.862732,,,
19471090000,0.999573,-0.012329,0.013489,-0.021729,-0.007812,0.011719,0.027344,16.877387,,,
19486677000,0.999573,-0.012329,0.013489,-0.021729,-0.007812,-0.027344,-0.011719,16.892974,,,
19507010000,0.999573,-0.012329,0.013489,-0.021729,0.027344,-0.027344,-0.011719,16.913307,,,
19526456000,0.999573,-0.012329,0.013489,-0.021729,-0.007812,-0.027344,0.027344,16.932753,,,
19556646000,0.999573,-0.012329,0.013489,-0.021729,-0.007812,-0.027344,-0.011719,16.962943,,,
19570459000,0.999573,-0.012329,0.013489,-0.021729,-0.007812,-0.027344,-0.011719,16.976756,,,
19586434000,0.999573,-0.012329,0.013489,-0.021729,-0.007812,-0.019531,-0.011719,16.992731,,,
19606283000,0.999573,-0.012329,0.013489,-0.021729,-0.007812,-0.019531,0.027344,17.01258,,,
19627555000,0.999573,-0.012329,0.013489,-0.021729,-0.007812,-0.019531,0.027344,17.033852,,,
19650671000,0.999573,-0.012329,0.013489,-0.021729,-0.007812,0.019531,0.027344,17.056968,,,
19666429000,0.999573,-0.012329,0.013489,-0.021729,0.027344,-0.019531,-0.011719,17.072726,,,
19686076000,0.999573,-0.012329,0.013489,-0.021729,-0.007812,0.019531,0.027344,17.092373,,,
19706092000,0.999573,-0.012329,0.013489,-0.021729,-0.007812,-0.019531,-0.011719,17.112389,,,
19736226000,0.999573,-0.012329,0.013489,-0.021729,-0.007812,0.019531,-0.011719,17.142523,,,
19749676000,0.999573,-0.012329,0.013489,-0.021729,-0.007812,-0.019531,0.027344,17.155973,,,
19766023000,0.999573,-0.012329,0.013489,-0.021729,-0.046875,-0.019531,-0.011719,17.17232,,,
19786250000,0.999573,-0.012329,0.013489,-0.021729,0.0,0.019531,-0.011719,17.192547,,,
19806742000,0.999573,-0.012329,0.013489,-0.021729,0.0,-0.019531,0.027344,17.213039,,,
19835419000,0.999573,-0.012329,0.013489,-0.021729,0.0,-0.019531,0.027344,17.241716,,,
19846048000,0.999573,-0.012329,0.013489,-0.021729,0.0,0.011719,0.027344,17.252345,,,
19866040000,0.999573,-0.012329,0.013489,-0.021729,0.035156,-0.027344,-0.011719,17.272337,,,
19895309000,0.999573,-0.012329,0.013489,-0.021729,0.0,-0.027344,-0.011719,17.301606,,,
19916084000,0.999573,-0.012329,0.013489,-0.021729,0.0,-0.027344,-0.011719,17.322381,,,
19925531000,0.999573,-0.012329,0.013489,-0.021729,0.0,-0.027344,-0.011719,17.331828,,,
19945833000,0.999573,-0.012329,0.013489,-0.021729,0.0,-0.027344,-0.011719,17.35213,,,
19966050000,0.999573,-0.012329,0.013489,-0.021729,-0.039062,0.011719,-0.011719,17.372347,,,
19985682000,0.999573,-0.012329,0.013489,-0.021729,0.0,-0.027344,0.027344,17.391979,,,
20005802000,0.999573,-0.012329,0.013489,-0.021729,0.035156,0.011719,-0.011719,17.412099,,,
20025787000,0.999573,-0.012329,0.013489,-0.021729,0.0,0.011719,0.027344,17.432084,,,
20054925000,0.999573,-0.012329,0.013489,-0.021729,0.0,-0.101562,-0.050781,17.461222,,,
20064888000,0.999573,-0.012329,0.013489,-0.021729,0.035156,0.011719,0.027344,17.471185,,,
20085841000,0.999573,-0.012329,0.013489,-0.021729,0.0,0.019531,0.0625,17.492138,,,
20105587000,0.999573,-0.012329,0.013489,-0.021729,0.0,-0.054688,-0.003906,17.511884,,,
20126088000,0.999573,-0.012329,0.013489,-0.021729,0.0,0.019531,-0.003906,17.532385,,,
20145410000,0.999573,-0.012329,0.013489,-0.021729,0.0,-0.019531,0.035156,17.551707,,,
20165333000,0.999573,-0.012329,0.013489,-0.021729,0.035156,0.019531,-0.003906,17.57163,,,
20185354000,0.999573,-0.012329,0.013489,-0.021729,0.035156,-0.019531,-0.003906,17.591651,,,
20205478000,0.999573,-0.012329,0.013489,-0.021729,0.027344,-0.027344,0.035156,17.611775,,,
20225447000,0.999573,-0.012329,0.013489,-0.021729,0.027344,-0.027344,-0.003906,17.631744,,,
20245548000,0.999634,-0.012634,0.01355,-0.020996,1.171875,-0.507812,-0.042969,17.651845,,,
20265643000,0.999634,-0.012878,0.013794,-0.01947,0.351562,-0.347656,0.226562,17.67194,,,
20285148000,0.999695,-0.01178,0.013367,-0.01825,-0.339844,-0.148438,-0.121094,17.691445,,,
20305432000,0.999695,-0.011414,0.013123,-0.017334,-0.539062,-0.277344,0.035156,17.711729,,,
20330242000,0.999695,-0.012268,0.013245,-0.01709,-0.714844,0.730469,-0.082031,17.736539,,,
20345047000,0.999695,-0.012451,0.013184,-0.016968,0.164062,-0.164062,0.070312,17.751344,,,
20365456000,0.999695,-0.012695,0.013184,-0.016846,-0.0625,-0.011719,-0.003906,17.771753,,,
20385366000,0.999695,-0.013245,0.013184,-0.016602,-0.027344,0.074219,-0.042969,17.791663,,,
20414773000,0.999695,-0.014282,0.013367,-0.016235,-0.003906,0.019531,0.070312,17.82107,,,
20428911000,0.999695,-0.014404,0.013367,-0.016235,-0.109375,-0.007812,0.035156,17.835208,,,
20445321000,0.999695,-0.014465,0.013245,-0.016174,-0.148438,0.0,-0.121094,17.851618,,,
20465415000,0.999634,-0.016113,0.013977,-0.015808,0.304688,0.0,0.1875,17.871712,,,
20485565000,0.999573,-0.01825,0.014709,-0.015808,0.503906,-0.007812,0.914062,17.891862,,,
20513966000,0.999634,-0.017944,0.013062,-0.017273,-0.808594,-0.039062,-1.0,17.920263,,,
20524319000,0.999634,-0.01709,0.012451,-0.017334,-0.507812,-0.613281,-0.273438,17.930616,,,
20545414000,0.999634,-0.016785,0.012207,-0.017334,-0.332031,-0.523438,0.644531,17.951711,,,
20574114000,0.999634,-0.016907,0.012024,-0.017456,-0.003906,-0.070312,-0.082031,17.980411,,,
20593792000,0.999634,-0.016357,0.011658,-0.017517,-0.011719,0.0,-0.042969,18.000089,,,
20604343000,0.999634,-0.016113,0.011536,-0.017578,0.027344,-0.046875,0.109375,18.01064,,,
20634150000,0.999634,-0.01825,0.010986,-0.017822,0.59375,0.0,-0.042969,18.040447,,,
20653808000,0.999634,-0.018127,0.009949,-0.016907,-0.066406,-1.402344,-0.160156,18.060105,,,
20664125000,0.999695,-0.016052,0.00824,-0.016174,0.261719,-0.949219,-1.269531,18.070422,,,
20693766000,0.999817,-0.008911,0.007751,-0.014221,1.785156,0.417969,3.289062,18.100063,,,
20714078000,0.999817,-0.007019,0.011108,-0.013123,1.542969,0.269531,-1.421875,18.120375,,,
20733461000,0.999756,-0.011475,0.011536,-0.012878,-1.199219,1.046875,-0.960938,18.139758,,,
20756003000,0.999695,-0.014526,0.013184,-0.013489,-1.726562,0.648438,0.652344,18.1623,,,
20773476000,0.999756,-0.012634,0.011963,-0.013733,-1.023438,-0.386719,-0.417969,18.179773,,,
20793470000,0.999756,-0.013184,0.012634,-0.014099,-0.578125,-0.023438,0.15625,18.199767,,,
20812943000,0.999695,-0.013489,0.012512,-0.014648,-0.101562,0.066406,-0.1875,18.21924,,,
20833566000,0.999695,-0.013611,0.012451,-0.015259,-0.265625,0.136719,0.15625,18.239863,,,
20853197000,0.999695,-0.014465,0.012756,-0.015564,-0.035156,-0.125,0.078125,18.259494,,,
20872590000,0.999695,-0.014648,0.012878,-0.015137,-0.417969,-0.070312,0.15625,18.278887,,,
20893016000,0.999695,-0.014282,0.012878,-0.014038,-0.339844,-0.039062,0.042969,18.299313,,,
20913907000,0.999695,-0.014526,0.013062,-0.012939,0.308594,0.035156,0.15625,18.320204,,,
20937813000,0.999756,-0.015137,0.013428,-0.011719,-0.140625,0.113281,0.15625,18.34411,,,
20953023000,0.999756,-0.015747,0.013672,-0.010132,-0.125,-0.023438,0.042969,18.35932,,,
20973081000,0.999756,-0.01532,0.013367,-0.008484,0.679688,-0.101562,-0.113281,18.379378,,,
20992760000,0.999756,-0.015869,0.013489,-0.007141,0.296875,0.167969,-0.035156,18.399057,,,
21019264000,0.999756,-0.015747,0.013428,-0.006714,0.371094,0.015625,-0.074219,18.425561,,,
21032309000,0.999756,-0.015747,0.013489,-0.007324,0.066406,0.167969,0.042969,18.438606,,,
21056139000,0.999756,-0.015259,0.013489,-0.007751,0.179688,-0.023438,-0.035156,18.462436,,,
21072700000,0.999756,-0.016602,0.013306,-0.008301,-0.515625,0.320312,0.003906,18.478997,,,
21092573000,0.999756,-0.017151,0.013062,-0.008911,1.046875,-0.347656,-0.378906,18.49887,,,
21112638000,0.999695,-0.018555,0.013062,-0.009399,-0.066406,0.097656,0.195312,18.518935,,,
21135814000,0.999695,-0.017639,0.012939,-0.009644,0.050781,-0.160156,-0.265625,18.542111,,,
21151880000,0.999756,-0.015381,0.014038,-0.010315,-0.058594,-0.8125,-0.878906,18.558177,,,
21172186000,0.999756,-0.015015,0.01355,-0.011169,-0.617188,-0.300781,-1.414062,18.578483,,,
21192686000,0.999695,-0.015015,0.013611,-0.012451,-0.664062,0.082031,-0.152344,18.598983,,,
21218768000,0.999695,-0.015015,0.013611,-0.013611,-0.699219,-0.039062,0.308594,18.625065,,,
21232805000,0.999695,-0.015198,0.013611,-0.014038,-0.808594,-0.230469,0.15625,18.639102,,,
21254813000,0.999695,-0.015137,0.013672,-0.014038,-0.269531,-0.148438,0.15625,18.66111,,,
21272591000,0.999695,-0.015076,0.013672,-0.013794,-0.617188,-0.109375,-0.152344,18.678888,,,
21291750000,0.999695,-0.015259,0.013672,-0.013428,-0.269531,-0.03125,0.042969,18.698047,,,
21312000000,0.999695,-0.015259,0.013611,-0.013306,-0.5,0.089844,-0.035156,18.718297,,,
21331696000,0.999695,-0.015259,0.013611,-0.013306,-0.347656,0.015625,0.003906,18.737993,,,
21355179000,0.999695,-0.015259,0.013672,-0.013245,-0.003906,-0.023438,0.042969,18.761476,,,
21371502000,0.999695,-0.015198,0.013672,-0.013,0.121094,0.015625,0.003906,18.777799,,,
21391474000,0.999695,-0.015198,0.013672,-0.012878,-0.035156,0.015625,0.042969,18.797771,,,
21411802000,0.999695,-0.015198,0.013611,-0.012573,0.121094,0.015625,-0.035156,18.818099,,,
21431613000,0.999695,-0.015259,0.013611,-0.012451,0.082031,-0.023438,0.042969,18.83791,,,
21457162000,0.999695,-0.015564,0.013672,-0.012634,0.121094,0.089844,0.15625,18.863459,,,
21471580000,0.999695,-0.015686,0.013733,-0.012695,-0.300781,0.058594,0.078125,18.877877,,,
21491768000,0.999695,-0.015747,0.013733,-0.012695,-0.492188,-0.015625,-0.035156,18.898065,,,
21510776000,0.999695,-0.015686,0.013733,-0.012695,-0.378906,0.023438,0.003906,18.917073,,,
21531780000,0.999695,-0.015686,0.013672,-0.012695,-0.109375,0.023438,0.003906,18.938077,,,
21550888000,0.999695,-0.015686,0.013611,-0.012756,-0.0625,0.058594,0.003906,18.957185,,,
21571233000,0.999695,-0.015625,0.013611,-0.012756,-0.0625,0.023438,0.042969,18.97753,,,
21590487000,0.999695,-0.015564,0.01355,-0.012878,-0.070312,0.023438,0.003906,18.996784,,,
21613895000,0.999695,-0.015503,0.013489,-0.013245,-0.1875,0.097656,0.003906,19.020192,,,
21630997000,0.999695,-0.015442,0.013428,-0.013794,-0.109375,0.050781,0.003906,19.037294,,,
21651383000,0.999695,-0.015381,0.013367,-0.01416,0.082031,-0.023438,0.003906,19.05768,,,
21670319000,0.999695,-0.015381,0.013367,-0.014099,-0.070312,0.042969,0.003906,19.076616,,,
21691883000,0.999695,-0.015381,0.013428,-0.014099,-0.070312,0.042969,0.042969,19.09818,,,
21714895000,0.999695,-0.015381,0.013428,-0.014099,-0.132812,0.042969,-0.035156,19.121192,,,
21730830000,0.999695,-0.015381,0.013428,-0.01416,-0.0625,0.082031,0.078125,19.137127,,,
21750664000,0.999695,-0.01532,0.013489,-0.01416,-0.027344,0.007812,0.042969,19.156961,,,
21770232000,0.999695,-0.015259,0.013672,-0.01416,-0.054688,0.042969,0.003906,19.176529,,,
21790250000,0.999695,-0.015259,0.013855,-0.014282,0.019531,0.082031,0.117188,19.196547,,,
21814295000,0.999695,-0.015259,0.013672,-0.014282,-0.132812,-0.03125,-0.226562,19.220592,,,
21830803000,0.999695,-0.015259,0.01355,-0.014282,0.023438,-0.046875,-0.136719,19.2371,,,
21850169000,0.999695,-0.015198,0.013611,-0.014282,0.058594,-0.007812,0.054688,19.256466,,,
21871047000,0.999695,-0.015198,0.013672,-0.014282,0.023438,0.027344,-0.019531,19.277344,,,
21890138000,0.999695,-0.015198,0.013672,-0.014343,0.023438,0.027344,-0.019531,19.296435,,,
21910491000,0.999695,-0.015198,0.013672,-0.014343,0.023438,-0.007812,0.019531,19.316788,,,
21932121000,0.999695,-0.015198,0.013672,-0.014343,0.015625,-0.007812,0.019531,19.338418,,,
21952403000,0.999695,-0.015198,0.013672,-0.014343,0.015625,0.027344,-0.019531,19.3587,,,
21970206000,0.999695,-0.015198,0.013672,-0.014343,0.015625,-0.007812,-0.019531,19.376503,,,
21990007000,0.999695,-0.015198,0.013672,-0.014343,0.015625,-0.007812,0.019531,19.396304,,,
22011066000,0.999695,-0.015198,0.013672,-0.014404,0.015625,-0.007812,-0.058594,19.417363,,,
22029819000,0.999695,-0.015198,0.013672,-0.014404,0.015625,-0.007812,-0.019531,19.436116,,,
22049444000,0.999695,-0.015198,0.013672,-0.014404,0.015625,-0.007812,-0.019531,19.455741,,,
22069653000,0.999695,-0.015198,0.013672,-0.014404,0.015625,-0.007812,0.019531,19.47595,,,
22089465000,0.999695,-0.015198,0.013672,-0.014404,0.015625,-0.007812,-0.019531,19.495762,,,
22111685000,0.999695,-0.015198,0.013672,-0.014404,0.015625,-0.007812,-0.011719,19.517982,,,
22134842000,0.999695,-0.015198,0.013672,-0.014404,0.007812,-0.007812,-0.011719,19.541139,,,
22149704000,0.999695,-0.015198,0.013611,-0.014404,0.007812,0.027344,0.027344,19.556001,,,
22169398000,0.999695,-0.015137,0.013611,-0.014404,0.007812,0.027344,0.027344,19.575695,,,
22189150000,0.999695,-0.015137,0.013611,-0.014404,0.007812,0.027344,-0.011719,19.595447,,,
22209877000,0.999695,-0.015137,0.013611,-0.014404,0.007812,-0.007812,-0.011719,19.616174,,,
22232999000,0.999695,-0.015137,0.013611,-0.014404,0.042969,-0.007812,-0.011719,19.639296,,,
22249225000,0.999695,-0.015137,0.013672,-0.014404,0.007812,-0.007812,-0.011719,19.655522,,,
22269579000,0.999695,-0.015137,0.013611,-0.014404,0.007812,0.027344,-0.011719,19.675876,,,
22289864000,0.999695,-0.015137,0.013672,-0.014404,0.007812,-0.015625,-0.011719,19.696161,,,
22319428000,0.999695,-0.015137,0.013672,-0.014343,0.035156,-0.015625,0.027344,19.725725,,,
22329643000,0.999695,-0.015137,0.013672,-0.014343,0.0,-0.015625,-0.011719,19.73594,,,
22349289000,0.999695,-0.015137,0.013672,-0.014343,0.0,-0.007812,-0.011719,19.755586,,,
22368668000,0.999695,-0.015137,0.013672,-0.014343,0.0,-0.007812,-0.011719,19.774965,,,
22389173000,0.999695,-0.015076,0.013611,-0.014343,0.0,-0.015625,-0.011719,19.79547,,,
22410983000,0.999695,-0.015076,0.013611,-0.014343,-0.039062,-0.015625,-0.011719,19.81728,,,
22428736000,0.999695,-0.015076,0.013611,-0.014343,0.035156,0.019531,-0.011719,19.835033,,,
22449144000,0.999695,-0.015076,0.013611,-0.014343,0.0,-0.015625,-0.011719,19.855441,,,
22469574000,0.999695,-0.015076,0.013611,-0.014343,0.035156,0.019531,-0.003906,19.875871,,,
22498621000,0.999695,-0.015076,0.013611,-0.014343,0.0,0.019531,0.035156,19.904918,,,
22513765000,0.999695,-0.015076,0.013611,-0.014343,0.0,-0.015625,-0.003906,19.920062,,,
22528371000,0.999695,-0.015076,0.013611,-0.014343,0.0,-0.015625,-0.003906,19.934668,,,
22548598000,0.999695,-0.015076,0.013672,-0.014343,0.0,-0.023438,0.035156,19.954895,,,
22568833000,0.999695,-0.015076,0.013672,-0.014343,0.0,-0.023438,-0.003906,19.97513,,,
22598496000,0.999695,-0.015076,0.013672,-0.014404,0.0,-0.015625,-0.003906,20.004793,,,
22608753000,0.999695,-0.015137,0.013672,-0.014404,0.0,-0.015625,-0.003906,20.01505,,,
22628235000,0.999695,-0.015137,0.013672,-0.014404,0.0,-0.015625,-0.003906,20.034532,,,
22650307000,0.999695,-0.015076,0.013672,-0.014404,-0.039062,0.027344,-0.003906,20.056604,,,
22668578000,0.999695,-0.015076,0.013733,-0.014404,-0.039062,-0.007812,-0.003906,20.074875,,,
22689334000,0.999695,-0.015076,0.013733,-0.014404,0.0,-0.007812,-0.003906,20.095631,,,
22712181000,0.999695,-0.015076,0.013733,-0.014404,0.0,0.027344,-0.003906,20.118478,,,
22727882000,0.999695,-0.015076,0.013733,-0.014465,0.0,0.019531,-0.003906,20.134179,,,
22747831000,0.999695,-0.015076,0.013733,-0.014465,0.0,-0.015625,0.035156,20.154128,,,
22768606000,0.999695,-0.015076,0.013733,-0.014465,0.0,0.011719,0.035156,20.174903,,,
22791353000,0.999695,-0.015076,0.013794,-0.014404,0.0,0.011719,-0.003906,20.19765,,,
22808511000,0.999695,-0.015076,0.013733,-0.014404,0.0,-0.023438,0.035156,20.214808,,,
22827306000,0.999695,-0.015076,0.013733,-0.014404,0.0,0.011719,-0.011719,20.233603,,,
22847999000,0.999695,-0.015015,0.013733,-0.014404,0.0,0.011719,-0.011719,20.254296,,,
22877689000,0.999695,-0.015015,0.013794,-0.014404,0.0,-0.023438,-0.011719,20.283986,,,
22887695000,0.999695,-0.015015,0.013794,-0.014404,0.0,0.011719,-0.011719,20.293992,,,
22907341000,0.999695,-0.015015,0.013794,-0.014404,0.0,-0.023438,-0.011719,20.313638,,,
22927743000,0.999695,-0.015015,0.013794,-0.014404,0.0,0.011719,0.027344,20.33404,,,
22947401000,0.999695,-0.015015,0.013794,-0.014404,0.035156,0.011719,0.027344,20.353698,,,
22977293000,0.999695,-0.015015,0.013794,-0.014404,-0.039062,0.011719,-0.050781,20.38359,,,
22991590000,0.999695,-0.015015,0.013794,-0.014404,0.0,-0.023438,-0.011719,20.397887,,,
23007246000,0.999695,-0.015076,0.013794,-0.014404,0.007812,0.003906,0.027344,20.413543,,,
23027583000,0.999695,-0.015015,0.013855,-0.014343,0.007812,-0.03125,-0.011719,20.43388,,,
23046992000,0.999695,-0.015015,0.013855,-0.014404,0.042969,-0.03125,-0.011719,20.453289,,,
23067542000,0.999695,-0.015076,0.013855,-0.014343,0.007812,-0.03125,0.027344,20.473839,,,
23087275000,0.999695,-0.015076,0.013855,-0.014343,0.007812,0.011719,-0.011719,20.493572,,,
23107648000,0.999695,-0.015015,0.013855,-0.014343,0.0,0.011719,-0.011719,20.513945,,,
23127128000,0.999695,-0.015015,0.013855,-0.014404,-0.039062,-0.023438,-0.011719,20.533425,,,
23148448000,0.999695,-0.014954,0.013855,-0.014404,0.0,-0.023438,-0.011719,20.554745,,,
23176415000,0.999695,-0.014954,0.013855,-0.014404,0.0,0.011719,-0.011719,20.582712,,,
23187081000,0.999695,-0.014954,0.013855,-0.014404,0.0,-0.023438,-0.011719,20.593378,,,
23206737000,0.999695,-0.014893,0.013855,-0.014404,0.0,0.011719,-0.011719,20.613034,,,
23227199000,0.999695,-0.014893,0.013855,-0.014404,-0.039062,0.011719,-0.011719,20.633496,,,
23246808000,0.999695,-0.014954,0.013855,-0.014404,0.0,-0.023438,-0.011719,20.653105,,,
23267447000,0.999695,-0.014893,0.013916,-0.014404,0.0,-0.023438,0.027344,20.673744,,,
23286523000,0.999695,-0.014893,0.013916,-0.014404,0.0,0.011719,-0.011719,20.69282,,,
23306667000,0.999695,-0.014893,0.013916,-0.014343,0.0,0.011719,0.027344,20.712964,,,
23326687000,0.999695,-0.014893,0.013916,-0.014343,0.0,0.011719,-0.011719,20.732984,,,
23356476000,0.999695,-0.014893,0.013916,-0.014343,0.0,-0.023438,0.027344,20.762773,,,
23371071000,0.999695,-0.014893,0.013916,-0.014343,0.0,-0.023438,-0.011719,20.777368,,,
23386490000,0.999695,-0.014893,0.013916,-0.014343,0.0,0.011719,0.027344,20.792787,,,
23406896000,0.999695,-0.014832,0.013916,-0.014343,0.0,0.011719,-0.011719,20.813193,,,
23426406000,0.999695,-0.014893,0.013916,-0.014343,0.0,-0.023438,-0.011719,20.832703,,,
23451828000,0.999695,-0.014893,0.013916,-0.014343,0.0,-0.023438,0.027344,20.858125,,,
23467893000,0.999695,-0.014893,0.013916,-0.014343,-0.039062,0.011719,-0.011719,20.87419,,,
23486335000,0.999695,-0.014893,0.013916,-0.014404,0.0,0.011719,-0.011719,20.892632,,,
23506006000,0.999695,-0.014893,0.013916,-0.014404,0.0,-0.023438,0.027344,20.912303,,,
23526185000,0.999695,-0.014893,0.013916,-0.014404,0.007812,0.011719,0.027344,20.932482,,,
23546124000,0.999695,-0.014893,0.013916,-0.014343,0.007812,0.011719,-0.050781,20.952421,,,
23566226000,0.999695,-0.014893,0.013916,-0.014343,0.007812,-0.023438,-0.011719,20.972523,,,
23587222000,0.999695,-0.014893,0.013916,-0.014343,0.007812,-0.023438,-0.011719,20.993519,,,
23610496000,0.999695,-0.014893,0.013916,-0.014343,0.007812,0.019531,0.027344,21.016793,,,
23625873000,0.999695,-0.014954,0.013916,-0.014343,0.007812,0.011719,0.027344,21.03217,,,
23645720000,0.999695,-0.014954,0.013916,-0.014343,0.007812,-0.023438,-0.011719,21.052017,,,
23665826000,0.999695,-0.014954,0.013916,-0.014404,0.007812,-0.023438,-0.011719,21.072123,,,
23695476000,0.999695,-0.014893,0.013916,-0.014404,0.042969,0.011719,-0.011719,21.101773,,,
23705647000,0.999695,-0.014893,0.013977,-0.014404,0.007812,0.011719,-0.011719,21.111944,,,
23725719000,0.999695,-0.014893,0.013916,-0.014465,0.007812,0.011719,0.027344,21.132016,,,
23745739000,0.999695,-0.014893,0.013916,-0.014465,0.007812,-0.023438,-0.011719,21.152036,,,
23778205000,0.999695,-0.014893,0.013916,-0.014404,0.0,0.019531,0.027344,21.184502,,,
23795082000,0.999695,-0.014954,0.013916,-0.014404,0.035156,-0.015625,0.027344,21.201379,,,
23804991000,0.999695,-0.014893,0.013916,-0.014404,0.0,0.019531,-0.011719,21.211288,,,
23825704000,0.999695,-0.014954,0.013916,-0.014404,0.0,-0.015625,-0.011719,21.232001,,,
23845833000,0.999695,-0.014954,0.013916,-0.014465,0.0,-0.015625,0.027344,21.25213,,,
23866430000,0.999695,-0.014954,0.013977,-0.014404,0.0,0.019531,-0.011719,21.272727,,,
23890920000,0.999695,-0.014954,0.013977,-0.014465,0.0,-0.015625,-0.042969,21.297217,,,
23905413000,0.999695,-0.014954,0.013977,-0.014404,0.0,-0.015625,-0.003906,21.31171,,,
23925368000,0.999695,-0.014893,0.013977,-0.014404,0.0,0.019531,0.035156,21.331665,,,
23954079000,0.999695,-0.014893,0.013977,-0.014404,0.0,-0.015625,-0.003906,21.360376,,,
23964199000,0.999695,-0.014893,0.013977,-0.014404,0.0,0.019531,-0.003906,21.370496,,,
23985407000,0.999695,-0.014893,0.013977,-0.014404,0.0,0.019531,0.035156,21.391704,,,
24005368000,0.999695,-0.014893,0.013977,-0.014404,0.0,-0.015625,-0.003906,21.411665,,,
24025551000,0.999695,-0.014893,0.013977,-0.014404,0.0,-0.015625,0.035156,21.431848,,,
24045365000,0.999695,-0.014893,0.013977,-0.014404,0.0,-0.015625,-0.003906,21.451662,,,
24073853000,0.999695,-0.014893,0.013977,-0.014404,0.0,0.019531,0.035156,21.48015,,,
24089268000,0.999695,-0.014893,0.013977,-0.014404,0.0,-0.015625,0.035156,21.495565,,,
24105260000,0.999695,-0.014893,0.013977,-0.014404,0.0,-0.015625,-0.003906,21.511557,,,
24125337000,0.999695,-0.014893,0.013977,-0.014404,0.0,0.019531,0.035156,21.531634,,,
24154462000,0.999695,-0.014893,0.013977,-0.014404,0.0,0.019531,-0.003906,21.560759,,,
24164881000,0.999695,-0.014893,0.013977,-0.014404,0.0,0.019531,-0.003906,21.571178,,,
24192032000,0.999695,-0.014893,0.013977,-0.014404,0.0,-0.015625,-0.003906,21.598329,,,
24205057000,0.999695,-0.014893,0.013977,-0.014404,0.0,0.019531,0.027344,21.611354,,,
24236338000,0.999695,-0.014893,0.013977,-0.014404,0.0,-0.015625,-0.011719,21.642635,,,
24253131000,0.999695,-0.014893,0.013977,-0.014404,-0.039062,-0.015625,-0.011719,21.659428,,,
24264128000,0.999695,-0.014893,0.013977,-0.014404,0.0,0.019531,-0.003906,21.670425,,,
24293670000,0.999695,-0.014893,0.013977,-0.014404,0.0,0.019531,-0.003906,21.699967,,,
24304349000,0.999695,-0.014893,0.013977,-0.014404,0.0,-0.015625,-0.003906,21.710646,,,
24332926000,0.999695,-0.014893,0.013977,-0.014404,-0.039062,0.019531,0.035156,21.739223,,,
24352940000,0.999695,-0.014893,0.013977,-0.014404,0.007812,-0.015625,0.035156,21.759237,,,
24373049000,0.999695,-0.014893,0.013977,-0.014404,0.007812,0.019531,0.035156,21.779346,,,
24384161000,0.999695,-0.014893,0.013977,-0.014404,0.007812,0.011719,-0.003906,21.790458,,,
24413412000,0.999695,-0.014893,0.013977,-0.014404,0.007812,0.011719,-0.003906,21.819709,,,
24433980000,0.999695,-0.014893,0.013977,-0.014404,0.007812,0.011719,0.035156,21.840277,,,
24453413000,0.999695,-0.014893,0.013977,-0.014404,0.007812,0.011719,0.035156,21.85971,,,
24464115000,0.999695,-0.014893,0.013977,-0.014404,0.007812,-0.023438,-0.011719,21.870412,,,
24493345000,0.999695,-0.014893,0.013977,-0.014404,0.007812,0.011719,-0.011719,21.899642,,,
24512950000,0.999695,-0.014893,0.013977,-0.014404,-0.03125,-0.023438,-0.011719,21.919247,,,
24532836000,0.999695,-0.014893,0.013977,-0.014404,0.007812,-0.023438,-0.003906,21.939133,,,
24552876000,0.999695,-0.014893,0.013977,-0.014404,0.007812,-0.023438,-0.003906,21.959173,,,
24578459000,0.999695,-0.014893,0.013977,-0.014404,0.007812,-0.023438,-0.003906,21.984756,,,
24594439000,0.999695,-0.014893,0.013977,-0.014404,0.007812,-0.023438,-0.003906,22.000736,,,
24612616000,0.999695,-0.014893,0.013977,-0.014404,0.007812,-0.015625,0.035156,22.018913,,,
24632771000,0.999695,-0.014893,0.013977,-0.014404,0.007812,-0.015625,-0.003906,22.039068,,,
24655310000,0.999695,-0.014893,0.013977,-0.014404,0.007812,0.019531,-0.042969,22.061607,,,
24672610000,0.999695,-0.014893,0.013977,-0.014404,0.007812,-0.015625,-0.003906,22.078907,,,
24693450000,0.999695,-0.014893,0.013977,-0.014404,0.007812,0.019531,-0.003906,22.099747,,,
24711929000,0.999695,-0.014893,0.013977,-0.014404,0.007812,0.019531,0.035156,22.118226,,,
24733366000,0.999695,-0.014893,0.013977,-0.014404,0.007812,0.019531,-0.003906,22.139663,,,
24752152000,0.999695,-0.014893,0.013977,-0.014404,0.007812,0.019531,-0.003906,22.158449,,,
24771706000,0.999695,-0.014893,0.013977,-0.014404,0.007812,0.019531,-0.003906,22.178003,,,
24792612000,0.999695,-0.014893,0.013977,-0.014404,0.007812,0.019531,-0.003906,22.198909,,,
24811710000,0.999695,-0.014893,0.013977,-0.014404,0.007812,0.019531,-0.003906,22.218007,,,
24834463000,0.999695,-0.014893,0.013977,-0.014404,0.007812,0.019531,0.035156,22.24076,,,
24852231000,0.999695,-0.014893,0.013977,-0.014404,0.007812,-0.023438,0.035156,22.258528,,,
24872181000,0.999695,-0.014893,0.014038,-0.014404,0.082031,-0.140625,0.109375,22.278478,,,
24891684000,0.999695,-0.014893,0.013977,-0.014404,0.007812,0.089844,0.035156,22.297981,,,
24911623000,0.999695,-0.014893,0.013977,-0.014404,-0.03125,0.050781,-0.042969,22.31792,,,
24931249000,0.999695,-0.014893,0.013977,-0.014404,0.007812,0.011719,-0.003906,22.337546,,,
24951574000,0.999695,-0.014893,0.013977,-0.014404,0.007812,-0.023438,-0.003906,22.357871,,,
24971664000,0.999695,-0.014893,0.013977,-0.014465,0.007812,-0.023438,0.035156,22.377961,,,
24991954000,0.999695,-0.014893,0.013977,-0.014465,-0.03125,0.011719,-0.003906,22.398251,,,
25012116000,0.999695,-0.014954,0.013916,-0.014465,0.007812,-0.0625,-0.003906,22.418413,,,
25035289000,0.999695,-0.014954,0.013916,-0.014404,0.007812,-0.023438,0.035156,22.441586,,,
25051731000,0.999695,-0.014954,0.013916,-0.014404,0.042969,-0.101562,0.035156,22.458028,,,
25070962000,0.999695,-0.014893,0.014038,-0.014404,0.042969,-0.0625,-0.003906,22.477259,,,
25091707000,0.999695,-0.014954,0.014099,-0.014404,0.113281,0.011719,0.101562,22.498004,,,
25116490000,0.999695,-0.015259,0.01416,-0.014587,1.140625,0.050781,-0.011719,22.522787,,,
25136212000,0.999634,-0.015808,0.014404,-0.014832,2.152344,0.019531,0.21875,22.542509,,,
25150997000,0.999634,-0.015259,0.015686,-0.015869,0.082031,0.0,0.292969,22.557294,,,
25171455000,0.999573,-0.01532,0.017029,-0.017151,0.335938,0.019531,-0.320312,22.577752,,,
25190853000,0.999573,-0.015137,0.016602,-0.0177,0.679688,0.0,-0.550781,22.59715,,,
25221565000,0.999634,-0.014465,0.01593,-0.017822,0.105469,-0.046875,0.5625,22.627862,,,
25233722000,0.999573,-0.014404,0.017395,-0.018005,-0.394531,0.058594,0.21875,22.640019,,,
25250836000,0.999512,-0.014771,0.020386,-0.018799,0.964844,-0.015625,-1.738281,22.657133,,,
25271007000,0.999451,-0.013611,0.023132,-0.018127,-0.160156,-2.546875,0.453125,22.677304,,,
25290726000,0.999512,-0.012817,0.022888,-0.017578,2.804688,0.542969,-1.308594,22.697023,,,
25314564000,0.999512,-0.013306,0.022217,-0.017334,0.453125,0.832031,-2.535156,22.720861,,,
25330946000,0.999573,-0.013062,0.020081,-0.017334,-0.183594,0.726562,-0.847656,22.737243,,,
25350648000,0.999573,-0.013733,0.018433,-0.017578,0.394531,-0.011719,0.179688,22.756945,,,
25370390000,0.999573,-0.013672,0.018188,-0.017822,0.617188,-0.5625,0.253906,22.776687,,,
25390739000,0.999573,-0.014099,0.017517,-0.018311,-0.46875,0.089844,0.332031,22.797036,,,
25420803000,0.999573,-0.013916,0.016663,-0.018799,-0.953125,-0.171875,0.332031,22.8271,,,
25435752000,0.999573,-0.013733,0.016113,-0.018799,-1.113281,0.011719,-0.242188,22.842049,,,
25450779000,0.999634,-0.013916,0.015564,-0.018616,-0.816406,0.042969,0.101562,22.857076,,,
25470381000,0.999634,-0.013977,0.015076,-0.01825,-0.140625,-0.0625,-0.089844,22.876678,,,
25490250000,0.999634,-0.013855,0.015015,-0.01825,-0.109375,0.160156,0.753906,22.896547,,,
25513039000,0.999634,-0.013367,0.014771,-0.018616,0.082031,-0.109375,0.0625,22.919336,,,
25529881000,0.999634,-0.01355,0.014526,-0.01947,-0.195312,0.535156,-0.742188,22.936178,,,
25549949000,0.999573,-0.014648,0.015686,-0.020813,-1.269531,0.980469,1.632812,22.956246,,,
25570042000,0.999512,-0.014893,0.015503,-0.022217,-0.433594,0.183594,-1.730469,22.976339,,,
25589916000,0.999512,-0.014954,0.015137,-0.022949,-0.25,-0.15625,0.378906,22.996213,,,
25609834000,0.999512,-0.015198,0.014893,-0.022827,-0.371094,0.066406,-0.195312,23.016131,,,
25639663000,0.999512,-0.015259,0.01416,-0.0224,0.339844,0.0,-0.273438,23.04596,,,
25654180000,0.999512,-0.015503,0.013672,-0.022339,0.179688,0.105469,-0.160156,23.060477,,,
25669498000,0.999573,-0.014893,0.013245,-0.022461,-0.25,0.0,0.492188,23.075795,,,
25689683000,0.999573,-0.014099,0.012756,-0.022766,-0.753906,-0.015625,0.109375,23.09598,,,
25709368000,0.999573,-0.014221,0.012634,-0.023132,-0.609375,0.050781,0.226562,23.115665,,,
25734319000,0.999573,-0.014038,0.012634,-0.023254,-0.457031,-0.101562,-0.195312,23.140616,,,
25749052000,0.999573,-0.014221,0.012695,-0.023193,-0.800781,0.089844,0.148438,23.155349,,,
25769445000,0.999573,-0.01416,0.012573,-0.023193,-0.726562,-0.023438,-0.160156,23.175742,,,
25788994000,0.999573,-0.01416,0.012573,-0.023193,-0.1875,0.011719,-0.042969,23.195291,,,
25811591000,0.999573,-0.01416,0.012512,-0.023254,-0.113281,0.050781,0.035156,23.217888,,,
25828890000,0.999573,-0.014099,0.012512,-0.023254,-0.148438,0.011719,0.035156,23.235187,,,
25849574000,0.999573,-0.014099,0.012512,-0.023254,-0.148438,0.011719,0.035156,23.255871,,,
25869379000,0.999573,-0.014099,0.012512,-0.023254,-0.15625,0.011719,-0.003906,23.275676,,,
25889466000,0.999573,-0.014038,0.012512,-0.023193,-0.15625,0.003906,-0.003906,23.295763,,,
25909076000,0.999573,-0.014099,0.012512,-0.023193,-0.121094,-0.03125,0.035156,23.315373,,,
25933942000,0.999573,-0.014099,0.012573,-0.023193,-0.140625,0.011719,0.035156,23.340239,,,
25948583000,0.999573,-0.013977,0.012512,-0.023254,-0.140625,-0.101562,-0.042969,23.35488,,,
25968657000,0.999573,-0.013977,0.012512,-0.023254,-0.113281,0.042969,0.035156,23.374954,,,
25988629000,0.999573,-0.013977,0.012573,-0.023254,-0.140625,0.042969,0.035156,23.394926,,,
26009010000,0.999573,-0.013977,0.012634,-0.023254,-0.140625,0.003906,-0.003906,23.415307,,,
26039395000,0.999573,-0.013977,0.012573,-0.023254,-0.140625,0.003906,-0.003906,23.445692,,,
26048652000,0.999573,-0.013977,0.012573,-0.023254,-0.140625,0.003906,0.035156,23.454949,,,
26068893000,0.999573,-0.013977,0.012512,-0.023254,-0.105469,0.003906,0.035156,23.47519,,,
26089115000,0.999573,-0.013977,0.012573,-0.023254,-0.105469,0.003906,-0.003906,23.495412,,,
26109025000,0.999573,-0.013977,0.012573,-0.023254,0.027344,-0.03125,-0.011719,23.515322,,,
26128307000,0.999573,-0.013977,0.012573,-0.023254,0.027344,0.003906,0.027344,23.534604,,,
26148418000,0.999573,-0.013977,0.012573,-0.023254,-0.007812,0.003906,0.027344,23.554715,,,
26168147000,0.999573,-0.013977,0.012573,-0.023315,0.027344,0.003906,-0.011719,23.574444,,,
26199017000,0.999573,-0.013916,0.012512,-0.023315,-0.007812,0.003906,0.027344,23.605314,,,
26211504000,0.999573,-0.013916,0.012512,-0.023315,0.027344,0.003906,-0.011719,23.617801,,,
26228025000,0.999573,-0.013916,0.012512,-0.023254,0.027344,0.003906,-0.011719,23.634322,,,
26248102000,0.999573,-0.013916,0.012512,-0.023315,-0.007812,0.003906,-0.011719,23.654399,,,
26268149000,0.999573,-0.013916,0.012573,-0.023315,0.027344,0.003906,0.027344,23.674446,,,
26298943000,0.999573,-0.013916,0.012573,-0.023315,-0.007812,0.003906,-0.011719,23.70524,,,
26307868000,0.999573,-0.013916,0.012573,-0.023315,-0.007812,-0.03125,-0.011719,23.714165,,,
26327955000,0.999573,-0.013916,0.012512,-0.023315,-0.007812,0.003906,-0.011719,23.734252,,,
26347915000,0.999573,-0.013916,0.012512,-0.023315,-0.007812,0.003906,-0.050781,23.754212,,,
26371090000,0.999573,-0.013916,0.012512,-0.023315,0.019531,0.003906,-0.011719,23.777387,,,
26387409000,0.999573,-0.013916,0.012512,-0.023376,0.019531,0.003906,0.027344,23.793706,,,
26407939000,0.999573,-0.013916,0.012512,-0.023376,0.019531,-0.03125,-0.003906,23.814236,,,
26438869000,0.999573,-0.013916,0.012512,-0.023376,-0.015625,-0.03125,0.035156,23.845166,,,
26447684000,0.999573,-0.013916,0.012512,-0.023376,-0.015625,0.003906,0.035156,23.853981,,,
26468013000,0.999573,-0.013977,0.012512,-0.023376,0.019531,0.003906,-0.011719,23.87431,,,
26487373000,0.999573,-0.013916,0.012512,-0.023376,-0.007812,0.003906,-0.011719,23.89367,,,
26507128000,0.999573,-0.013977,0.012512,-0.023376,0.019531,0.003906,0.027344,23.913425,,,
26527511000,0.999573,-0.013977,0.012512,-0.023376,-0.015625,0.003906,0.027344,23.933808,,,
26547069000,0.999573,-0.013916,0.012512,-0.023376,0.011719,0.003906,-0.011719,23.953366,,,
26567096000,0.999573,-0.013916,0.012512,-0.023376,0.011719,0.003906,-0.011719,23.973393,,,
26586971000,0.999573,-0.013977,0.012512,-0.023376,-0.023438,0.003906,0.027344,23.993268,,,
26607151000,0.999573,-0.013916,0.012512,-0.023376,-0.023438,0.003906,-0.011719,24.013448,,,
26627127000,0.999573,-0.013977,0.012512,-0.023438,-0.023438,0.003906,-0.011719,24.033424,,,
26657609000,0.999573,-0.013977,0.012512,-0.023376,-0.023438,-0.03125,-0.011719,24.063906,,,
26666694000,0.999573,-0.013977,0.012451,-0.023376,-0.023438,0.003906,0.027344,24.072991,,,
26687220000,0.999573,-0.013977,0.012512,-0.023376,-0.023438,-0.03125,0.027344,24.093517,,,
26707586000,0.999573,-0.014038,0.012451,-0.023376,0.011719,0.003906,-0.011719,24.113883,,,
26737057000,0.999573,-0.014038,0.012512,-0.023376,-0.023438,0.003906,-0.011719,24.143354,,,
26753463000,0.999573,-0.014038,0.012451,-0.023376,0.011719,0.003906,-0.011719,24.15976,,,
26766894000,0.999573,-0.014038,0.012512,-0.023376,-0.023438,-0.03125,0.027344,24.173191,,,
26787021000,0.999573,-0.014038,0.012512,-0.023376,0.011719,0.003906,-0.011719,24.193318,,,
26807061000,0.999573,-0.014038,0.012512,-0.023376,0.011719,-0.03125,0.027344,24.213358,,,
26836804000,0.999573,-0.014038,0.012512,-0.023376,0.011719,0.003906,-0.011719,24.243101,,,
26852820000,0.999573,-0.014038,0.012512,-0.023376,-0.023438,-0.03125,-0.011719,24.259117,,,
26866960000,0.999573,-0.014038,0.012512,-0.023376,-0.023438,0.003906,-0.011719,24.273257,,,
26886710000,0.999573,-0.013977,0.012512,-0.023376,-0.015625,0.003906,0.027344,24.293007,,,
26906865000,0.999573,-0.013977,0.012573,-0.023376,0.019531,0.003906,0.027344,24.313162,,,
26926758000,0.999573,-0.013977,0.012573,-0.023376,0.019531,0.003906,0.027344,24.333055,,,
26946389000,0.999573,-0.013977,0.012573,-0.023376,-0.015625,0.003906,-0.011719,24.352686,,,
26976284000,0.999573,-0.013977,0.012573,-0.023376,-0.015625,0.003906,0.027344,24.382581,,,
26986575000,0.999573,-0.013977,0.012573,-0.023376,-0.015625,0.003906,-0.011719,24.392872,,,
27006801000,0.999573,-0.013977,0.012573,-0.023376,-0.015625,0.003906,-0.011719,24.413098,,,
27026506000,0.999573,-0.013977,0.012573,-0.023376,-0.015625,0.003906,-0.011719,24.432803,,,
27056384000,0.999573,-0.013977,0.012573,-0.023376,-0.015625,0.003906,0.027344,24.462681,,,
27066099000,0.999573,-0.013977,0.012634,-0.023376,0.019531,0.003906,0.027344,24.472396,,,
27086485000,0.999573,-0.013977,0.012634,-0.023376,-0.015625,0.003906,0.027344,24.492782,,,
27116674000,0.999573,-0.013916,0.012634,-0.023315,0.019531,0.003906,-0.011719,24.522971,,,
27129833000,0.999573,-0.013977,0.012634,-0.023315,-0.015625,-0.03125,-0.011719,24.53613,,,
27146120000,0.999573,-0.013977,0.012695,-0.023376,-0.015625,0.003906,0.027344,24.552417,,,
27166306000,0.999573,-0.013916,0.012634,-0.023376,-0.015625,0.003906,0.027344,24.572603,,,
27186091000,0.999573,-0.013916,0.012695,-0.023376,0.019531,0.003906,0.027344,24.592388,,,
27206056000,0.999573,-0.013977,0.012695,-0.023376,-0.015625,-0.03125,0.027344,24.612353,,,
27226018000,0.999573,-0.013977,0.012695,-0.023376,0.019531,0.003906,-0.011719,24.632315,,,
27251138000,0.999573,-0.014038,0.012695,-0.023376,-0.015625,-0.03125,0.027344,24.657435,,,
27265884000,0.999573,-0.013977,0.012695,-0.023376,-0.015625,0.003906,-0.011719,24.672181,,,
27285746000,0.999573,-0.013977,0.012695,-0.023376,-0.015625,0.003906,0.027344,24.692043,,,
27305828000,0.999573,-0.014038,0.012695,-0.023376,-0.015625,0.003906,0.027344,24.712125,,,
27325748000,0.999573,-0.014038,0.012695,-0.023438,-0.015625,0.003906,-0.011719,24.732045,,,
27355619000,0.999573,-0.014038,0.012695,-0.023438,-0.015625,0.003906,0.027344,24.761916,,,
27365422000,0.999573,-0.014038,0.012695,-0.023438,0.019531,-0.03125,-0.011719,24.771719,,,
27385749000,0.999573,-0.014038,0.012695,-0.023438,0.019531,0.003906,0.027344,24.792046,,,
27405749000,0.999573,-0.014038,0.012695,-0.023438,-0.015625,0.003906,-0.011719,24.812046,,,
27425743000,0.999573,-0.014038,0.012695,-0.023376,0.019531,0.003906,0.027344,24.83204,,,
27445781000,0.999573,-0.014038,0.012695,-0.023376,0.019531,0.003906,0.027344,24.852078,,,
27465826000,0.999573,-0.014038,0.012695,-0.023376,-0.015625,0.003906,-0.011719,24.872123,,,
27494924000,0.999573,-0.013977,0.012695,-0.023376,-0.015625,0.003906,-0.011719,24.901221,,,
27505028000,0.999573,-0.013977,0.012695,-0.023438,0.019531,0.003906,0.027344,24.911325,,,
27525746000,0.999573,-0.014038,0.012756,-0.023376,0.019531,0.003906,0.027344,24.932043,,,
27545406000,0.999573,-0.013977,0.012756,-0.023376,0.019531,0.003906,-0.011719,24.951703,,,
27576552000,0.999573,-0.013977,0.012695,-0.023376,-0.015625,-0.003906,-0.011719,24.982849,,,
27584683000,0.999573,-0.013977,0.012756,-0.023376,0.019531,-0.003906,0.027344,24.99098,,,
27614828000,0.999573,-0.013977,0.012756,-0.023376,-0.015625,-0.003906,-0.019531,25.021125,,,
27624552000,0.999573,-0.013977,0.012756,-0.023376,-0.015625,-0.003906,-0.019531,25.030849,,,
27645404000,0.999573,-0.013977,0.012756,-0.023376,-0.015625,-0.003906,-0.011719,25.051701,,,
27667244000,0.999573,-0.013977,0.012756,-0.023376,-0.015625,-0.003906,-0.011719,25.073541,,,
27694339000,0.999573,-0.013977,0.012756,-0.023376,-0.015625,-0.003906,-0.011719,25.100636,,,
27704129000,0.999573,-0.014038,0.012756,-0.023376,-0.015625,-0.003906,-0.011719,25.110426,,,
27725379000,0.999573,-0.014038,0.012756,-0.023376,-0.015625,-0.003906,-0.011719,25.131676,,,
27745481000,0.999573,-0.013977,0.012756,-0.023376,0.019531,-0.003906,0.027344,25.151778,,,
27773900000,0.999573,-0.013977,0.012756,-0.023315,-0.015625,-0.003906,-0.011719,25.180197,,,
27789598000,0.999573,-0.013977,0.012756,-0.023315,0.019531,-0.003906,0.027344,25.195895,,,
27805040000,0.999573,-0.013977,0.012756,-0.023376,-0.015625,0.035156,0.027344,25.211337,,,
27826142000,0.999573,-0.013977,0.012756,-0.023376,-0.015625,-0.003906,-0.011719,25.232439,,,
27845414000,0.999573,-0.013977,0.012817,-0.023376,0.019531,-0.003906,-0.011719,25.251711,,,
27866152000,0.999573,-0.013916,0.012817,-0.023376,-0.015625,-0.003906,0.027344,25.272449,,,
27894108000,0.999573,-0.013977,0.012756,-0.023376,-0.015625,-0.003906,0.027344,25.300405,,,
27908587000,0.999573,-0.013977,0.012756,-0.023376,-0.015625,-0.039062,0.027344,25.314884,,,
27925189000,0.999573,-0.013977,0.012817,-0.023376,-0.015625,-0.003906,-0.011719,25.331486,,,
27945387000,0.999573,-0.013916,0.012817,-0.023376,0.019531,-0.003906,-0.011719,25.351684,,,
27975063000,0.999573,-0.013977,0.012817,-0.023376,-0.015625,-0.003906,0.027344,25.38136,,,
27993762000,0.999573,-0.013977,0.012817,-0.023376,0.019531,-0.003906,0.027344,25.400059,,,
28010121000,0.999573,-0.013977,0.012817,-0.023376,-0.015625,-0.003906,-0.011719,25.416418,,,
28025047000,0.999573,-0.013977,0.012817,-0.023376,-0.015625,-0.003906,-0.011719,25.431344,,,
28057326000,0.999573,-0.013977,0.012817,-0.023376,-0.015625,-0.003906,-0.011719,25.463623,,,
28072999000,0.999573,-0.013977,0.012756,-0.023376,-0.015625,0.074219,0.027344,25.479296,,,
28095941000,0.999573,-0.013977,0.012756,-0.023376,-0.015625,-0.078125,-0.050781,25.502238,,,
28118346000,0.999573,-0.013977,0.012756,-0.023376,-0.015625,-0.003906,0.027344,25.524643,,,
28134030000,0.999573,-0.013977,0.012756,-0.023376,-0.015625,-0.003906,-0.019531,25.540327,,,
28153033000,0.999573,-0.013977,0.012756,-0.023376,0.019531,-0.039062,-0.019531,25.55933,,,
28173238000,0.999573,-0.013977,0.012756,-0.023376,0.019531,-0.039062,-0.019531,25.579535,,,
28193068000,0.999573,-0.013977,0.012756,-0.023376,-0.015625,-0.003906,-0.019531,25.599365,,,
28217551000,0.999573,-0.013916,0.012756,-0.023376,-0.015625,-0.003906,0.019531,25.623848,,,
28233173000,0.999573,-0.013977,0.012756,-0.023376,0.019531,-0.003906,-0.011719,25.63947,,,
28253749000,0.999573,-0.013977,0.012695,-0.023376,0.019531,-0.078125,-0.011719,25.660046,,,
28273142000,0.999573,-0.013916,0.012756,-0.023376,-0.054688,0.035156,-0.011719,25.679439,,,
28292924000,0.999573,-0.013977,0.012756,-0.023376,0.019531,0.035156,0.027344,25.699221,,,
28316967000,0.999573,-0.013977,0.012817,-0.023376,-0.015625,-0.003906,-0.011719,25.723264,,,
28332088000,0.999573,-0.013977,0.012878,-0.023376,0.019531,-0.003906,-0.011719,25.738385,,,
28352877000,0.999573,-0.014038,0.012939,-0.023438,0.519531,0.113281,-0.011719,25.759174,,,
28372135000,0.999573,-0.014038,0.013,-0.022949,3.644531,-0.1875,0.0625,25.778432,,,
28392892000,0.999573,-0.014099,0.013184,-0.0224,2.488281,-0.109375,0.253906,25.799189,,,
28412251000,0.999573,-0.014099,0.013794,-0.022766,0.332031,0.042969,0.371094,25.818548,,,
28437959000,0.999512,-0.014038,0.013855,-0.023804,-0.277344,0.195312,0.0625,25.844256,,,
28452356000,0.999512,-0.013672,0.013428,-0.025208,0.164062,-0.070312,-0.625,25.858653,,,
28472868000,0.999451,-0.013428,0.013428,-0.026855,0.683594,-0.039062,0.5625,25.879165,,,
28492966000,0.999451,-0.013794,0.01355,-0.027466,0.890625,-0.078125,0.179688,25.899263,,,
28516912000,0.999451,-0.013794,0.013428,-0.02771,-0.496094,-0.003906,0.027344,25.923209,,,
28532374000,0.99939,-0.013367,0.013489,-0.028564,-1.152344,0.234375,0.132812,25.938671,,,
28552374000,0.99939,-0.013123,0.013306,-0.029724,-1.039062,0.152344,-0.136719,25.958671,,,
28574988000,0.999329,-0.012939,0.013123,-0.031311,-1.046875,-0.070312,-0.328125,25.981285,,,
28597157000,0.999268,-0.013184,0.013184,-0.032532,-0.488281,0.035156,0.484375,26.003454,,,
28611906000,0.999268,-0.013123,0.012939,-0.033325,-0.878906,-0.117188,-0.050781,26.018203,,,
28631916000,0.999268,-0.013,0.012695,-0.034485,-0.574219,-0.078125,-0.625,26.038213,,,
28651543000,0.999207,-0.012939,0.012756,-0.034851,-0.734375,0.226562,0.410156,26.05784,,,
28675894000,0.999268,-0.013,0.012634,-0.034363,-0.617188,-0.078125,0.253906,26.082191,,,
28691811000,0.999268,-0.013245,0.012634,-0.033752,-1.238281,-0.003906,-0.203125,26.098108,,,
28711804000,0.999268,-0.012939,0.01239,-0.033447,-1.429688,-0.078125,-0.128906,26.118101,,,
28733776000,0.999268,-0.013062,0.012512,-0.033386,-1.699219,0.226562,0.179688,26.140073,,,
28751557000,0.999268,-0.013,0.012451,-0.033386,-1.09375,-0.15625,-0.089844,26.157854,,,
28772166000,0.999268,-0.013,0.012451,-0.033386,-0.210938,-0.039062,-0.089844,26.178463,,,
28792971000,0.999268,-0.013062,0.012512,-0.033386,-0.097656,-0.003906,-0.011719,26.199268,,,
28812125000,0.999329,-0.012939,0.012451,-0.032715,1.050781,-0.195312,0.0625,26.218422,,,
28837773000,0.999329,-0.013062,0.012329,-0.031677,0.515625,-0.078125,-0.050781,26.24407,,,
28851144000,0.999329,-0.012878,0.012207,-0.031128,-0.058594,0.113281,-0.011719,26.257441,,,
28871405000,0.999329,-0.013,0.012085,-0.03186,-0.863281,0.1875,-0.242188,26.277702,,,
28891531000,0.999268,-0.013,0.011902,-0.033142,-0.832031,0.1875,0.101562,26.297828,,,
28915454000,0.999268,-0.012939,0.011658,-0.034058,-0.949219,-0.386719,-0.011719,26.321751,,,
28931142000,0.999268,-0.012939,0.011658,-0.033997,-0.183594,-0.046875,-0.050781,26.337439,,,
28951021000,0.999268,-0.012878,0.011658,-0.033997,-0.21875,-0.046875,-0.050781,26.357318,,,
28970550000,0.999268,-0.012878,0.011658,-0.033997,-0.183594,-0.011719,0.027344,26.376847,,,
28990619000,0.999268,-0.012878,0.011597,-0.034058,-0.21875,-0.011719,-0.011719,26.396916,,,
29014732000,0.999268,-0.012817,0.011597,-0.034058,-0.21875,-0.011719,-0.011719,26.421029,,,
29031439000,0.999268,-0.012817,0.011536,-0.034058,-0.183594,0.027344,0.027344,26.437736,,,
29050819000,0.999268,-0.012817,0.011536,-0.034058,-0.191406,0.027344,0.027344,26.457116,,,
29070455000,0.999268,-0.012878,0.011536,-0.034058,-0.226562,0.027344,0.027344,26.476752,,,
29091008000,0.999268,-0.012817,0.011475,-0.034058,-0.152344,-0.011719,-0.011719,26.497305,,,
29115178000,0.999268,-0.012817,0.011536,-0.034058,-0.191406,-0.046875,-0.011719,26.521475,,,
29130198000,0.999268,-0.012756,0.011475,-0.034058,-0.113281,-0.011719,0.027344,26.536495,,,
29150257000,0.999268,-0.012817,0.011536,-0.034058,-0.105469,0.21875,0.21875,26.556554,,,
29170312000,0.999268,-0.012756,0.011597,-0.034058,-0.144531,0.027344,0.0625,26.576609,,,
29190419000,0.999268,-0.012817,0.011597,-0.034058,-0.21875,-0.046875,-0.050781,26.596716,,,
29214503000,0.999268,-0.012756,0.011536,-0.034058,-0.210938,0.027344,-0.011719,26.6208,,,
29230270000,0.999268,-0.012756,0.011536,-0.034058,-0.175781,0.066406,0.0625,26.636567,,,
29249694000,0.999268,-0.012695,0.011536,-0.034119,-0.175781,-0.011719,0.027344,26.655991,,,
29269980000,0.999268,-0.012695,0.011597,-0.034119,-0.175781,0.027344,0.027344,26.676277,,,
29289758000,0.999268,-0.012695,0.011536,-0.034058,-0.175781,-0.011719,-0.011719,26.696055,,,
29309689000,0.999268,-0.012634,0.011536,-0.034058,-0.175781,-0.011719,-0.011719,26.715986,,,
29329669000,0.999268,-0.012634,0.011536,-0.034058,-0.175781,-0.011719,-0.050781,26.735966,,,
