timestamp_ns,qw,qx,qy,qz,ax,ay,az
2641239000,0.999084,-0.010010,0.041260,-0.000427,0.000000,0.003906,-0.035156
2660511000,0.999084,-0.010010,0.041260,-0.000427,0.000000,-0.027344,-0.035156
2670194000,0.999084,-0.010010,0.041260,-0.000427,0.000000,0.011719,0.003906
2680510000,0.999084,-0.010010,0.041321,-0.000427,0.000000,0.011719,0.003906
2690779000,0.999084,-0.010010,0.041321,-0.000427,0.000000,0.011719,0.003906
2700954000,0.999084,-0.010010,0.041321,-0.000427,0.000000,-0.027344,-0.035156
2710484000,0.999084,-0.010010,0.041260,-0.000427,0.000000,0.011719,0.042969
2720493000,0.999084,-0.009949,0.041260,-0.000427,0.000000,-0.027344,0.003906
2730505000,0.999084,-0.009949,0.041260,-0.000427,0.039062,-0.027344,0.003906
2740827000,0.999084,-0.009949,0.041260,-0.000427,0.000000,0.011719,-0.035156
2750111000,0.999084,-0.009949,0.041260,-0.000427,0.000000,0.011719,-0.035156
2760676000,0.999084,-0.009949,0.041321,-0.000427,0.000000,-0.027344,-0.035156
2770999000,0.999084,-0.009949,0.041321,-0.000427,0.000000,-0.027344,0.003906
2789908000,0.999084,-0.009949,0.041321,-0.000427,0.039062,0.011719,0.003906
2810485000,0.999084,-0.009949,0.041321,-0.000427,0.000000,-0.027344,0.011719
2830215000,0.999084,-0.009888,0.041321,-0.000427,0.000000,-0.019531,0.003906
2850149000,0.999084,-0.009949,0.041321,-0.000427,0.000000,0.019531,0.003906
2872257000,0.999084,-0.009949,0.041321,-0.000427,0.000000,-0.019531,0.003906
2890336000,0.999084,-0.009949,0.041321,-0.000427,0.000000,-0.019531,0.003906
2910318000,0.999084,-0.009949,0.041321,-0.000427,0.000000,0.019531,0.003906
2931277000,0.999084,-0.009949,0.041321,-0.000427,-0.039062,0.019531,0.003906
2954931000,0.999084,-0.009949,0.041321,-0.000488,0.000000,0.019531,0.003906
2969726000,0.999084,-0.009949,0.041321,-0.000427,0.000000,0.019531,0.003906
2992705000,0.999084,-0.009949,0.041321,-0.000427,0.000000,-0.019531,0.003906
3009923000,0.999084,-0.009949,0.041260,-0.000427,0.000000,0.019531,0.003906
3030504000,0.999084,-0.009949,0.041260,-0.000427,0.000000,0.019531,0.003906
3049858000,0.999084,-0.009949,0.041260,-0.000427,0.000000,-0.019531,0.003906
3069912000,0.999084,-0.009949,0.041321,-0.000427,0.000000,0.019531,0.003906
3089619000,0.999084,-0.009949,0.041260,-0.000366,0.000000,0.019531,0.003906
3109725000,0.999084,-0.009888,0.041260,-0.000366,0.000000,-0.019531,0.003906
3129487000,0.999084,-0.009949,0.041260,-0.000427,0.000000,0.019531,0.003906
3149485000,0.999084,-0.009949,0.041260,-0.000427,0.000000,0.019531,0.003906
3175394000,0.999084,-0.009949,0.041260,-0.000366,0.000000,-0.019531,0.003906
3189132000,0.999084,-0.009888,0.041260,-0.000366,0.000000,-0.019531,0.042969
3209008000,0.999084,-0.009888,0.041321,-0.000366,0.000000,0.019531,0.042969
3228670000,0.999084,-0.009888,0.041260,-0.000366,0.000000,0.019531,0.003906
3249489000,0.999084,-0.009949,0.041260,-0.000427,0.000000,-0.019531,-0.035156
3271128000,0.999084,-0.009888,0.041260,-0.000427,0.000000,0.019531,0.003906
3289521000,0.999084,-0.009888,0.041260,-0.000427,0.000000,0.019531,0.042969
3315328000,0.999084,-0.009888,0.041260,-0.000427,0.000000,0.019531,0.003906
3329208000,0.999084,-0.009888,0.041260,-0.000427,0.039062,-0.019531,0.042969
3349203000,0.999084,-0.009888,0.041260,-0.000427,0.000000,0.019531,0.003906
3368718000,0.999084,-0.009888,0.041260,-0.000366,0.000000,0.011719,0.003906
3388357000,0.999084,-0.009888,0.041260,-0.000366,0.000000,-0.027344,0.003906
3408266000,0.999084,-0.009888,0.041260,-0.000366,0.000000,0.011719,0.003906
3428293000,0.999084,-0.009827,0.041260,-0.000427,0.000000,0.011719,0.003906
3449380000,0.999084,-0.009827,0.041260,-0.000427,0.000000,0.011719,0.003906
3469130000,0.999084,-0.009827,0.041260,-0.000427,0.000000,0.011719,0.003906
3488381000,0.999084,-0.009827,0.041260,-0.000427,0.000000,0.011719,0.003906
3509049000,0.999084,-0.009827,0.041260,-0.000427,0.000000,-0.027344,0.003906
3527873000,0.999084,-0.009827,0.041260,-0.000366,-0.039062,0.011719,0.003906
3548348000,0.999084,-0.009827,0.041321,-0.000427,0.000000,0.011719,0.003906
3568062000,0.999084,-0.009827,0.041321,-0.000366,0.000000,-0.027344,0.003906
3591568000,0.999084,-0.009827,0.041321,-0.000366,0.000000,0.011719,0.003906
3607719000,0.999084,-0.009827,0.041321,-0.000366,0.000000,0.011719,0.003906
3627757000,0.999084,-0.009827,0.041321,-0.000366,0.000000,0.011719,0.003906
3647529000,0.999084,-0.009827,0.041321,-0.000366,0.000000,-0.027344,0.003906
3672198000,0.999084,-0.009827,0.041321,-0.000366,0.000000,0.011719,0.003906
3687380000,0.999084,-0.009827,0.041321,-0.000366,0.000000,0.011719,0.003906
3707935000,0.999084,-0.009827,0.041321,-0.000366,0.000000,-0.027344,0.003906
3729774000,0.999084,-0.009827,0.041321,-0.000366,0.000000,0.011719,0.042969
3747346000,0.999084,-0.009827,0.041321,-0.000366,0.000000,0.011719,0.003906
3767122000,0.999084,-0.009827,0.041321,-0.000366,0.000000,-0.027344,0.003906
3787518000,0.999084,-0.009827,0.041321,-0.000366,0.000000,0.011719,0.003906
3810801000,0.999084,-0.009827,0.041321,-0.000366,0.000000,0.011719,0.003906
3837051000,0.999084,-0.009827,0.041321,-0.000366,0.000000,-0.027344,0.003906
3847412000,0.999084,-0.009827,0.041321,-0.000366,0.000000,-0.027344,0.003906
3868475000,0.999084,-0.009827,0.041321,-0.000366,-0.039062,0.011719,0.003906
3886818000,0.999084,-0.009827,0.041321,-0.000366,0.000000,0.011719,0.042969
3907392000,0.999084,-0.009827,0.041321,-0.000366,0.000000,-0.027344,-0.035156
3927611000,0.999084,-0.009827,0.041321,-0.000366,0.000000,0.011719,0.042969
3951597000,0.999084,-0.009827,0.041321,-0.000366,0.000000,-0.027344,0.003906
3966743000,0.999084,-0.009827,0.041321,-0.000366,0.039062,0.011719,0.003906
3987925000,0.999084,-0.009827,0.041321,-0.000366,0.000000,0.011719,0.003906
4006990000,0.999084,-0.009827,0.041321,-0.000366,-0.039062,0.011719,0.003906
4028843000,0.999084,-0.009827,0.041321,-0.000366,0.000000,-0.027344,0.003906
4046378000,0.999084,-0.009827,0.041321,-0.000366,0.000000,-0.027344,0.003906
4067970000,0.999084,-0.009827,0.041321,-0.000366,0.000000,0.011719,0.003906
4086709000,0.999084,-0.009827,0.041321,-0.000366,0.000000,0.011719,0.003906
4107200000,0.999084,-0.009827,0.041321,-0.000366,0.000000,0.011719,0.003906
4136707000,0.999084,-0.009827,0.041321,-0.000366,0.000000,0.011719,0.042969
4146502000,0.999084,-0.009827,0.041321,-0.000366,0.000000,-0.027344,0.003906
4166056000,0.999084,-0.009827,0.041321,-0.000366,0.000000,0.011719,0.003906
4187823000,0.999084,-0.009827,0.041321,-0.000366,0.000000,0.011719,0.003906
4212311000,0.999084,-0.009827,0.041321,-0.000366,0.000000,-0.027344,0.003906
4226690000,0.999084,-0.009827,0.041321,-0.000366,0.039062,0.011719,0.003906
4246408000,0.999084,-0.009827,0.041321,-0.000366,-0.039062,0.011719,0.003906
4276598000,0.999084,-0.009827,0.041321,-0.000366,0.000000,-0.027344,0.003906
4286092000,0.999084,-0.009827,0.041321,-0.000366,0.000000,0.011719,0.042969
4306058000,0.999084,-0.009827,0.041321,-0.000366,0.000000,0.011719,0.003906
4329133000,0.999084,-0.009827,0.041321,-0.000366,0.000000,0.011719,0.003906
4345678000,0.999084,-0.009827,0.041321,-0.000366,0.000000,-0.027344,0.003906
4365764000,0.999084,-0.009827,0.041321,-0.000366,0.039062,0.011719,0.003906
4386161000,0.999084,-0.009827,0.041321,-0.000366,0.000000,-0.027344,0.003906
4405841000,0.999084,-0.009827,0.041321,-0.000366,0.000000,0.011719,0.003906
4435672000,0.999084,-0.009827,0.041321,-0.000366,0.000000,-0.027344,0.003906
4445233000,0.999084,-0.009827,0.041321,-0.000366,0.000000,0.011719,0.003906
4465262000,0.999084,-0.009827,0.041321,-0.000366,0.000000,0.011719,0.003906
4495272000,0.999084,-0.009827,0.041321,-0.000366,0.000000,0.011719,0.003906
4515394000,0.999084,-0.009827,0.041321,-0.000366,0.000000,0.011719,0.003906
4525120000,0.999084,-0.009827,0.041321,-0.000366,-0.039062,-0.027344,0.003906
4545377000,0.999084,-0.009827,0.041321,-0.000366,0.000000,0.011719,0.003906
4565221000,0.999084,-0.009827,0.041321,-0.000366,0.000000,0.011719,-0.003906
4586172000,0.999084,-0.009827,0.041321,-0.000366,0.000000,0.011719,-0.003906
4615838000,0.999084,-0.009827,0.041321,-0.000366,0.000000,0.011719,-0.003906
4624759000,0.999084,-0.009827,0.041321,-0.000366,0.000000,0.011719,-0.003906
4645235000,0.999084,-0.009827,0.041321,-0.000366,0.000000,0.011719,-0.003906
4665090000,0.999084,-0.009827,0.041321,-0.000366,0.000000,0.011719,0.035156
4694948000,0.999084,-0.009827,0.041321,-0.000366,0.000000,0.011719,-0.003906
4712407000,0.999084,-0.009827,0.041321,-0.000366,0.000000,0.011719,-0.003906
4724716000,0.999084,-0.009827,0.041321,-0.000366,0.000000,0.011719,-0.003906
4744814000,0.999084,-0.009827,0.041321,-0.000366,0.000000,-0.027344,-0.003906
4764964000,0.999084,-0.009827,0.041321,-0.000366,0.000000,0.011719,-0.003906
4784753000,0.999084,-0.009827,0.041321,-0.000366,0.000000,0.011719,-0.003906
4814462000,0.999084,-0.009827,0.041321,-0.000366,0.000000,-0.027344,-0.003906
4824909000,0.999084,-0.009827,0.041321,-0.000366,0.000000,0.011719,-0.003906
4845963000,0.999084,-0.009827,0.041321,-0.000366,0.000000,0.011719,-0.003906
4866088000,0.999084,-0.009827,0.041321,-0.000366,0.000000,0.011719,-0.003906
4889281000,0.999084,-0.009827,0.041321,-0.000366,0.000000,0.011719,-0.003906
4904892000,0.999084,-0.009827,0.041321,-0.000366,0.000000,-0.027344,-0.003906
4924450000,0.999084,-0.009827,0.041321,-0.000366,0.000000,-0.027344,0.035156
4944989000,0.999084,-0.009827,0.041321,-0.000366,-0.039062,0.011719,-0.003906
4973986000,0.999084,-0.009827,0.041321,-0.000366,0.000000,0.011719,-0.003906
4984325000,0.999084,-0.009827,0.041321,-0.000366,0.000000,0.011719,-0.003906
5004202000,0.999084,-0.009827,0.041321,-0.000366,0.000000,0.011719,-0.003906
5024230000,0.999084,-0.009827,0.041321,-0.000366,0.000000,-0.027344,0.035156
5055134000,0.999084,-0.009827,0.041321,-0.000366,0.000000,0.011719,-0.003906
5064020000,0.999084,-0.009827,0.041321,-0.000366,0.000000,0.011719,0.035156
5084071000,0.999084,-0.009827,0.041321,-0.000366,0.000000,0.011719,-0.003906
5109412000,0.999084,-0.009827,0.041321,-0.000366,-0.039062,0.011719,-0.003906
5124135000,0.999084,-0.009827,0.041321,-0.000366,-0.039062,-0.027344,-0.003906
5144401000,0.999084,-0.009827,0.041321,-0.000366,0.000000,0.011719,0.035156
5164245000,0.999084,-0.009827,0.041321,-0.000366,0.007812,0.011719,0.035156
5184048000,0.999084,-0.009827,0.041321,-0.000366,0.007812,0.011719,-0.003906
5204161000,0.999084,-0.009827,0.041321,-0.000366,0.000000,-0.027344,-0.003906
5233970000,0.999084,-0.009827,0.041321,-0.000366,0.000000,0.011719,-0.003906
5247633000,0.999084,-0.009827,0.041321,-0.000366,0.000000,0.011719,0.035156
5263957000,0.999084,-0.009827,0.041321,-0.000366,0.000000,0.011719,-0.003906
5284013000,0.999084,-0.009827,0.041321,-0.000366,0.000000,0.011719,0.035156
5303862000,0.999084,-0.009827,0.041321,-0.000366,0.000000,0.011719,-0.003906
5333663000,0.999084,-0.009827,0.041321,-0.000366,0.000000,0.011719,-0.042969
5343145000,0.999084,-0.009827,0.041321,-0.000366,0.000000,0.011719,0.035156
5364466000,0.999084,-0.009827,0.041321,-0.000366,0.000000,0.011719,-0.042969
5393958000,0.999084,-0.009827,0.041321,-0.000366,0.000000,0.011719,-0.003906
5402625000,0.999084,-0.009827,0.041321,-0.000366,0.000000,0.011719,-0.003906
5424751000,0.999084,-0.009827,0.041321,-0.000366,0.000000,0.011719,-0.003906
5453095000,0.999084,-0.009827,0.041321,-0.000366,0.000000,0.011719,-0.003906
5463081000,0.999084,-0.009827,0.041321,-0.000366,0.000000,0.011719,0.035156
5483405000,0.999084,-0.009827,0.041321,-0.000366,0.000000,0.011719,0.035156
5503666000,0.999084,-0.009827,0.041321,-0.000366,0.000000,-0.027344,-0.003906
5533158000,0.999084,-0.009827,0.041321,-0.000366,0.000000,-0.027344,-0.003906
5542606000,0.999084,-0.009827,0.041321,-0.000366,0.000000,0.011719,-0.003906
5563444000,0.999084,-0.009827,0.041321,-0.000366,0.000000,0.011719,-0.003906
5592278000,0.999084,-0.009827,0.041321,-0.000366,0.000000,-0.027344,-0.003906
5602146000,0.999084,-0.009827,0.041321,-0.000366,0.000000,0.011719,-0.003906
5623758000,0.999084,-0.009827,0.041321,-0.000366,0.000000,0.011719,0.035156
5644730000,0.999084,-0.009827,0.041321,-0.000366,0.000000,0.011719,-0.003906
5663019000,0.999084,-0.009827,0.041321,-0.000366,0.039062,0.011719,-0.003906
5683494000,0.999084,-0.009827,0.041321,-0.000366,0.000000,0.011719,-0.003906
5703385000,0.999084,-0.009827,0.041321,-0.000366,0.000000,0.011719,-0.003906
5732726000,0.999084,-0.009827,0.041321,-0.000366,0.000000,0.011719,-0.003906
5742168000,0.999084,-0.009827,0.041321,-0.000366,0.000000,-0.027344,0.035156
5763439000,0.999084,-0.009827,0.041321,-0.000366,0.000000,0.011719,-0.003906
5783403000,0.999084,-0.009827,0.041321,-0.000366,0.039062,-0.027344,-0.003906
5804454000,0.999084,-0.009827,0.041321,-0.000366,0.000000,-0.027344,0.035156
5823055000,0.999084,-0.009827,0.041321,-0.000366,0.000000,0.011719,0.035156
5843520000,0.999084,-0.009827,0.041321,-0.000366,0.000000,0.011719,0.027344
5872137000,0.999084,-0.009827,0.041321,-0.000366,0.000000,0.011719,-0.011719
5883395000,0.999084,-0.009827,0.041321,-0.000366,0.000000,0.011719,0.027344
5908283000,0.999084,-0.009827,0.041321,-0.000366,0.039062,0.011719,-0.011719
5928107000,0.999084,-0.009827,0.041321,-0.000366,-0.007812,0.011719,-0.011719
5952375000,0.999084,-0.009827,0.041321,-0.000366,-0.007812,0.011719,-0.011719
5971947000,0.999084,-0.009827,0.041321,-0.000366,-0.007812,0.011719,-0.011719
5992014000,0.999084,-0.009827,0.041321,-0.000366,-0.007812,0.011719,-0.011719
6011438000,0.999084,-0.009827,0.041321,-0.000366,-0.007812,0.011719,-0.011719
6031549000,0.999084,-0.009827,0.041321,-0.000366,-0.007812,0.011719,-0.011719
6051467000,0.999084,-0.009827,0.041321,-0.000366,-0.007812,0.011719,-0.003906
6076607000,0.999084,-0.009827,0.041321,-0.000366,-0.007812,0.003906,-0.003906
6091468000,0.999084,-0.009827,0.041321,-0.000366,0.031250,0.003906,-0.003906
6111410000,0.999084,-0.009827,0.041321,-0.000366,-0.007812,0.003906,-0.003906
6134468000,0.999084,-0.009827,0.041321,-0.000366,-0.007812,-0.035156,-0.003906
6142487000,0.999084,-0.009827,0.041321,-0.000366,-0.007812,0.011719,-0.003906
6171002000,0.999084,-0.009827,0.041321,-0.000366,-0.007812,0.011719,-0.003906
6190576000,0.999084,-0.009827,0.041321,-0.000366,-0.007812,-0.027344,0.035156
6210450000,0.999084,-0.009827,0.041321,-0.000366,-0.007812,0.011719,-0.003906
6235340000,0.999084,-0.009827,0.041321,-0.000366,-0.007812,0.011719,-0.003906
6250820000,0.999084,-0.009827,0.041321,-0.000366,0.000000,0.011719,-0.003906
6270519000,0.999084,-0.009827,0.041321,-0.000366,0.000000,0.011719,-0.003906
6291183000,0.999084,-0.009827,0.041321,-0.000366,0.000000,0.011719,-0.003906
6310575000,0.999084,-0.009827,0.041321,-0.000366,0.039062,0.011719,-0.003906
6330609000,0.999084,-0.009827,0.041321,-0.000366,0.000000,0.011719,0.035156
6350596000,0.999084,-0.009827,0.041321,-0.000366,0.000000,0.011719,-0.003906
6370457000,0.999084,-0.009827,0.041321,-0.000366,0.000000,0.011719,-0.003906
6390710000,0.999084,-0.009827,0.041321,-0.000366,0.000000,0.011719,-0.003906
6410543000,0.999084,-0.009827,0.041321,-0.000366,0.039062,0.011719,-0.003906
6433251000,0.999084,-0.009827,0.041321,-0.000366,0.000000,0.011719,0.035156
6450602000,0.999084,-0.009827,0.041321,-0.000366,0.000000,0.011719,-0.003906
6470579000,0.999084,-0.009827,0.041321,-0.000366,0.000000,-0.027344,0.035156
6490041000,0.999084,-0.009827,0.041321,-0.000366,0.000000,0.011719,-0.003906
6513001000,0.999084,-0.009827,0.041321,-0.000366,0.000000,0.011719,-0.003906
6530013000,0.999084,-0.009827,0.041321,-0.000366,0.000000,0.003906,-0.003906
6549465000,0.999084,-0.009827,0.041321,-0.000366,0.000000,0.003906,-0.003906
6569517000,0.999084,-0.009827,0.041321,-0.000366,0.000000,0.003906,-0.003906
6590626000,0.999084,-0.009827,0.041321,-0.000366,0.000000,0.003906,-0.003906
6609434000,0.999084,-0.009827,0.041321,-0.000366,0.000000,0.003906,-0.003906
6629887000,0.999084,-0.009827,0.041260,-0.000366,0.000000,0.003906,0.035156
6653934000,0.999084,-0.009888,0.041321,-0.000366,0.000000,0.003906,-0.003906
6670240000,0.999084,-0.009888,0.041321,-0.000366,0.000000,0.003906,-0.003906
6689471000,0.999084,-0.009888,0.041260,-0.000366,0.000000,0.003906,-0.003906
6712754000,0.999084,-0.009888,0.041260,-0.000427,0.000000,-0.035156,0.035156
6729812000,0.999084,-0.009888,0.041260,-0.000366,0.000000,0.003906,-0.003906
6749271000,0.999084,-0.009888,0.041321,-0.000366,0.000000,0.003906,-0.003906
6769909000,0.999084,-0.009888,0.041260,-0.000366,0.000000,0.011719,-0.003906
6788962000,0.999084,-0.009949,0.041321,-0.000366,0.000000,0.011719,0.035156
6808890000,0.999084,-0.009949,0.041321,-0.000366,0.000000,0.011719,-0.003906
6828905000,0.999084,-0.009949,0.041321,-0.000366,-0.039062,0.011719,-0.042969
6856178000,0.999084,-0.009949,0.041321,-0.000366,0.000000,0.011719,-0.003906
6869219000,0.999084,-0.009949,0.041321,-0.000366,0.000000,0.011719,-0.003906
6889834000,0.999084,-0.009949,0.041321,-0.000366,0.000000,0.011719,-0.003906
6908813000,0.999084,-0.009949,0.041321,-0.000366,0.039062,0.011719,-0.003906
6929511000,0.999084,-0.009949,0.041321,-0.000366,0.000000,0.011719,-0.003906
6949263000,0.999084,-0.009949,0.041321,-0.000366,0.000000,0.011719,-0.003906
6969161000,0.999084,-0.009888,0.041321,-0.000305,0.000000,0.011719,-0.003906
6989720000,0.999084,-0.009888,0.041321,-0.000305,0.000000,-0.027344,-0.003906
7009226000,0.999084,-0.009888,0.041321,-0.000305,0.000000,0.011719,-0.042969
7030637000,0.999084,-0.009888,0.041321,-0.000305,0.000000,0.011719,0.035156
7055397000,0.999084,-0.009888,0.041321,-0.000305,0.000000,0.011719,-0.003906
7069193000,0.999084,-0.009888,0.041321,-0.000366,0.000000,0.003906,-0.003906
7088508000,0.999084,-0.009888,0.041321,-0.000305,0.000000,-0.035156,0.035156
7108803000,0.999084,-0.009888,0.041321,-0.000305,0.000000,0.003906,-0.003906
7132989000,0.999084,-0.009888,0.041321,-0.000305,0.000000,-0.027344,-0.003906
7149084000,0.999084,-0.009888,0.041382,-0.000305,0.000000,0.011719,-0.003906
7168679000,0.999084,-0.009888,0.041382,-0.000305,0.000000,0.011719,-0.003906
7189071000,0.999084,-0.009827,0.041382,-0.000305,0.039062,0.011719,-0.003906
7211392000,0.999084,-0.009827,0.041382,-0.000305,0.000000,0.011719,-0.003906
7228586000,0.999084,-0.009827,0.041382,-0.000305,0.000000,-0.027344,0.035156
7247917000,0.999084,-0.009827,0.041382,-0.000305,0.000000,-0.027344,0.035156
7270236000,0.999084,-0.009827,0.041382,-0.000305,0.000000,0.011719,-0.003906
7292270000,0.999084,-0.009827,0.041382,-0.000305,0.000000,0.011719,-0.003906
7308223000,0.999084,-0.009827,0.041382,-0.000366,0.000000,0.011719,0.035156
7328065000,0.999084,-0.009827,0.041382,-0.000305,0.000000,0.011719,0.035156
7351763000,0.999084,-0.009827,0.041382,-0.000305,0.000000,0.011719,-0.011719
7368457000,0.999084,-0.009827,0.041382,-0.000305,-0.039062,0.011719,-0.011719
7387517000,0.999084,-0.009827,0.041382,-0.000305,0.000000,0.011719,-0.011719
7408341000,0.999084,-0.009827,0.041443,-0.000305,0.000000,0.011719,-0.011719
7432078000,0.999084,-0.009827,0.041382,-0.000366,0.000000,0.003906,-0.011719
7447327000,0.999084,-0.009766,0.041382,-0.000366,0.000000,0.003906,-0.011719
7469537000,0.999084,-0.009766,0.041382,-0.000366,0.000000,0.042969,-0.011719
7490933000,0.999084,-0.009766,0.041443,-0.000366,0.039062,0.003906,-0.011719
7507485000,0.999084,-0.009766,0.041443,-0.000366,0.000000,0.003906,0.027344
7527241000,0.999084,-0.009827,0.041443,-0.000366,0.007812,0.003906,-0.011719
7547825000,0.999084,-0.009766,0.041443,-0.000366,0.007812,0.003906,0.027344
7575558000,0.999084,-0.009827,0.041443,-0.000366,0.007812,0.003906,-0.011719
7586762000,0.999084,-0.009827,0.041443,-0.000366,0.007812,0.003906,-0.011719
7610732000,0.999084,-0.009827,0.041443,-0.000366,0.046875,0.003906,-0.011719
7626797000,0.999084,-0.009827,0.041443,-0.000366,-0.031250,0.003906,0.027344
7647055000,0.999084,-0.009827,0.041443,-0.000366,0.007812,0.003906,-0.011719
7666584000,0.999084,-0.009827,0.041443,-0.000366,0.000000,0.003906,-0.011719
7691200000,0.999084,-0.009827,0.041443,-0.000366,0.000000,0.003906,0.027344
7706481000,0.999084,-0.009827,0.041443,-0.000366,0.000000,0.003906,-0.011719
7726819000,0.999084,-0.009827,0.041443,-0.000366,0.000000,-0.035156,-0.011719
7746720000,0.999084,-0.009827,0.041443,-0.000366,0.000000,0.003906,-0.011719
7766389000,0.999084,-0.009827,0.041443,-0.000366,0.000000,0.003906,0.027344
7787012000,0.999084,-0.009827,0.041443,-0.000366,0.000000,0.003906,-0.011719
7806727000,0.999084,-0.009827,0.041443,-0.000366,0.000000,0.003906,0.027344
7826894000,0.999084,-0.009827,0.041443,-0.000366,0.000000,0.003906,-0.011719
7856676000,0.999084,-0.009827,0.041443,-0.000366,0.000000,-0.035156,-0.011719
7871724000,0.999084,-0.009827,0.041443,-0.000366,0.000000,0.003906,-0.011719
7886616000,0.999084,-0.009827,0.041443,-0.000366,0.000000,0.003906,0.027344
7906257000,0.999084,-0.009827,0.041443,-0.000366,0.000000,0.003906,0.027344
7926377000,0.999084,-0.009827,0.041443,-0.000366,0.000000,0.003906,-0.011719
7947222000,0.999084,-0.009827,0.041443,-0.000366,0.000000,0.003906,-0.011719
7965692000,0.999084,-0.009827,0.041443,-0.000366,0.000000,0.003906,0.027344
7986103000,0.999084,-0.009827,0.041443,-0.000366,0.000000,0.003906,-0.011719
8005522000,0.999084,-0.009827,0.041443,-0.000366,0.039062,0.003906,-0.011719
8028927000,0.999084,-0.009827,0.041443,-0.000366,0.000000,0.003906,-0.011719
8045546000,0.999084,-0.009827,0.041443,-0.000366,0.000000,0.003906,-0.011719
8065354000,0.999084,-0.009827,0.041443,-0.000366,0.000000,0.003906,0.027344
8095801000,0.999084,-0.009827,0.041443,-0.000366,0.039062,0.003906,0.027344
8105438000,0.999084,-0.009827,0.041443,-0.000366,0.000000,-0.035156,0.027344
8125691000,0.999084,-0.009827,0.041443,-0.000366,0.000000,0.003906,-0.011719
8145472000,0.999084,-0.009827,0.041443,-0.000366,0.000000,0.003906,0.027344
8166154000,0.999084,-0.009827,0.041443,-0.000366,0.000000,0.003906,0.027344
8193195000,0.999084,-0.009827,0.041443,-0.000366,0.000000,-0.035156,-0.011719
8205492000,0.999084,-0.009827,0.041443,-0.000366,0.000000,0.003906,-0.011719
8225833000,0.999084,-0.009827,0.041443,-0.000366,0.000000,0.011719,0.027344
8247061000,0.999084,-0.009827,0.041443,-0.000366,0.000000,0.011719,-0.011719
8275576000,0.999084,-0.009827,0.041443,-0.000366,0.000000,0.011719,0.027344
8292400000,0.999084,-0.009827,0.041443,-0.000366,0.000000,0.011719,0.027344
8305157000,0.999084,-0.009827,0.041443,-0.000366,0.000000,0.011719,0.027344
8335126000,0.999084,-0.009827,0.041443,-0.000366,0.000000,0.011719,0.027344
8349453000,0.999084,-0.009827,0.041443,-0.000366,0.000000,0.011719,0.027344
8364770000,0.999084,-0.009827,0.041443,-0.000366,0.000000,0.011719,-0.011719
8385391000,0.999084,-0.009827,0.041443,-0.000366,0.000000,0.011719,-0.011719
8405078000,0.999084,-0.009827,0.041443,-0.000366,0.000000,0.011719,0.027344
8430695000,0.999084,-0.009827,0.041443,-0.000366,0.000000,0.011719,-0.011719
8444878000,0.999084,-0.009827,0.041443,-0.000366,0.000000,0.011719,-0.011719
8465414000,0.999084,-0.009827,0.041443,-0.000366,0.000000,0.011719,-0.011719
8485253000,0.999084,-0.009827,0.041443,-0.000366,0.000000,0.011719,0.027344
8514119000,0.999084,-0.009827,0.041443,-0.000366,0.039062,0.011719,0.027344
8524498000,0.999084,-0.009827,0.041443,-0.000366,0.000000,0.011719,0.027344
8544961000,0.999084,-0.009827,0.041443,-0.000366,0.000000,0.011719,0.027344
8564447000,0.999084,-0.009827,0.041443,-0.000366,0.000000,0.003906,-0.011719
8584897000,0.999084,-0.009827,0.041443,-0.000366,0.000000,0.003906,0.027344
8604404000,0.999084,-0.009827,0.041443,-0.000366,0.000000,0.003906,0.027344
8634269000,0.999084,-0.009827,0.041443,-0.000366,0.000000,0.003906,0.027344
8644226000,0.999084,-0.009827,0.041443,-0.000366,0.000000,0.042969,-0.011719
8664421000,0.999084,-0.009827,0.041443,-0.000366,0.000000,0.003906,-0.011719
8684423000,0.999084,-0.009827,0.041443,-0.000366,0.000000,0.003906,-0.011719
8713982000,0.999084,-0.009827,0.041443,-0.000366,0.000000,0.003906,0.027344
8724230000,0.999084,-0.009827,0.041443,-0.000366,0.000000,0.003906,-0.011719
8744221000,0.999084,-0.009827,0.041443,-0.000366,0.000000,-0.035156,-0.011719
8764556000,0.999084,-0.009827,0.041443,-0.000366,0.000000,0.003906,-0.011719
8784516000,0.999084,-0.009827,0.041443,-0.000366,0.039062,0.003906,0.027344
8813409000,0.999084,-0.009827,0.041443,-0.000366,0.000000,0.003906,0.027344
8823663000,0.999084,-0.009827,0.041443,-0.000366,0.000000,0.003906,0.027344
8844314000,0.999084,-0.009827,0.041443,-0.000366,0.039062,0.003906,0.027344
8873950000,0.999084,-0.009827,0.041443,-0.000366,-0.007812,0.003906,0.019531
8884004000,0.999084,-0.009827,0.041443,-0.000366,-0.007812,0.003906,-0.019531
8913617000,0.999084,-0.009827,0.041443,-0.000366,-0.007812,0.003906,0.019531
8923638000,0.999084,-0.009827,0.041443,-0.000366,-0.007812,0.003906,0.019531
8944000000,0.999084,-0.009827,0.041443,-0.000366,-0.007812,0.003906,0.019531
8964631000,0.999084,-0.009827,0.041443,-0.000366,-0.007812,0.003906,0.019531
8989313000,0.999084,-0.009827,0.041443,-0.000366,0.000000,-0.035156,-0.019531
9003414000,0.999084,-0.009827,0.041443,-0.000366,0.000000,0.003906,-0.019531
9023816000,0.999084,-0.009827,0.041443,-0.000366,0.000000,-0.035156,0.019531
9044149000,0.999084,-0.009827,0.041443,-0.000366,0.000000,0.003906,-0.019531
9072692000,0.999084,-0.009827,0.041443,-0.000366,-0.039062,0.003906,0.019531
9083047000,0.999084,-0.009827,0.041443,-0.000366,0.000000,0.003906,0.019531
9103812000,0.999084,-0.009827,0.041443,-0.000366,0.039062,0.003906,0.019531
9123843000,0.999084,-0.009827,0.041443,-0.000366,0.039062,-0.035156,0.019531
9144222000,0.999084,-0.009827,0.041443,-0.000366,0.000000,-0.035156,0.019531
9172473000,0.999084,-0.009827,0.041443,-0.000366,0.000000,0.003906,0.019531
9183016000,0.999084,-0.009827,0.041443,-0.000366,0.000000,0.011719,0.019531
9203373000,0.999084,-0.009827,0.041443,-0.000366,0.000000,0.011719,0.019531
9232753000,0.999084,-0.009827,0.041443,-0.000366,0.000000,0.011719,-0.019531
9242583000,0.999084,-0.009827,0.041443,-0.000366,0.000000,0.011719,-0.019531
9263390000,0.999084,-0.009827,0.041443,-0.000366,0.039062,0.011719,0.019531
9283689000,0.999084,-0.009827,0.041443,-0.000366,0.000000,0.011719,0.019531
9310242000,0.999084,-0.009827,0.041443,-0.000366,0.000000,0.011719,0.019531
9323257000,0.999084,-0.009827,0.041443,-0.000366,0.000000,0.011719,-0.019531
9343393000,0.999084,-0.009827,0.041443,-0.000366,0.000000,0.011719,-0.019531
9364772000,0.999084,-0.009827,0.041443,-0.000366,0.000000,0.011719,0.019531
9383028000,0.999084,-0.009827,0.041443,-0.000366,0.000000,0.003906,0.019531
9403358000,0.999084,-0.009827,0.041443,-0.000366,0.000000,0.003906,-0.019531
9423480000,0.999084,-0.009827,0.041443,-0.000366,0.000000,-0.035156,0.019531
9451497000,0.999084,-0.009827,0.041443,-0.000366,-0.007812,0.003906,-0.019531
9462176000,0.999084,-0.009827,0.041443,-0.000366,-0.007812,-0.035156,0.019531
9483367000,0.999084,-0.009827,0.041443,-0.000366,-0.007812,0.003906,-0.019531
9503434000,0.999084,-0.009827,0.041443,-0.000366,-0.007812,0.003906,0.019531
9531277000,0.999084,-0.009827,0.041443,-0.000366,-0.007812,0.003906,-0.019531
9542180000,0.999084,-0.009827,0.041443,-0.000366,-0.007812,0.003906,-0.019531
9563395000,0.999084,-0.009827,0.041443,-0.000366,-0.007812,0.003906,-0.019531
9583432000,0.999084,-0.009827,0.041443,-0.000366,0.000000,0.011719,0.019531
9611540000,0.999084,-0.009827,0.041443,-0.000366,0.000000,-0.027344,-0.011719
9628887000,0.999084,-0.009827,0.041443,-0.000366,0.039062,0.011719,-0.011719
9643112000,0.999084,-0.009827,0.041443,-0.000366,0.000000,0.011719,0.027344
9663385000,0.999084,-0.009888,0.041443,-0.000427,0.000000,0.011719,0.027344
9691545000,0.999084,-0.009888,0.041443,-0.000366,0.000000,0.011719,-0.011719
9707909000,0.999084,-0.009888,0.041443,-0.000427,0.000000,0.011719,-0.011719
9731510000,0.999084,-0.009888,0.041443,-0.000427,0.000000,-0.027344,0.027344
9750941000,0.999084,-0.009888,0.041443,-0.000366,0.000000,-0.027344,0.027344
9771066000,0.999084,-0.009888,0.041443,-0.000366,0.000000,0.011719,-0.011719
9782135000,0.999084,-0.009888,0.041443,-0.000366,0.000000,0.011719,0.027344
9811370000,0.999084,-0.009888,0.041443,-0.000427,0.000000,0.011719,0.027344
9822460000,0.999084,-0.009888,0.041443,-0.000427,0.000000,0.011719,-0.011719
9850910000,0.999084,-0.009949,0.041443,-0.000427,0.000000,-0.027344,0.019531
9870576000,0.999084,-0.009949,0.041443,-0.000427,0.039062,0.011719,0.019531
9895032000,0.999084,-0.009888,0.041443,-0.000427,0.000000,0.011719,-0.019531
9910665000,0.999084,-0.009949,0.041443,-0.000427,0.000000,0.011719,0.019531
9931356000,0.999084,-0.009949,0.041443,-0.000366,-0.007812,0.011719,0.019531
9950592000,0.999084,-0.009949,0.041443,-0.000366,-0.007812,0.011719,0.019531
9970475000,0.999084,-0.009888,0.041443,-0.000366,-0.007812,0.011719,0.019531
9990335000,0.999084,-0.009888,0.041443,-0.000366,-0.007812,0.011719,0.019531
10015119000,0.999084,-0.009888,0.041382,-0.000366,-0.007812,-0.027344,0.019531
10031118000,0.999084,-0.009888,0.041382,-0.000366,-0.007812,0.011719,-0.019531
10050183000,0.999084,-0.009888,0.041382,-0.000366,-0.007812,0.011719,0.019531
10072210000,0.999084,-0.009888,0.041443,-0.000366,-0.007812,0.011719,-0.019531
10090596000,0.999084,-0.009827,0.041443,-0.000366,-0.007812,0.011719,-0.019531
10110700000,0.999084,-0.009888,0.041443,-0.000366,-0.007812,0.011719,0.019531
10131870000,0.999084,-0.009888,0.041443,-0.000366,-0.007812,0.011719,-0.019531
10150282000,0.999084,-0.009888,0.041382,-0.000427,0.000000,0.003906,0.019531
10169789000,0.999084,-0.009888,0.041443,-0.000427,0.000000,0.003906,-0.019531
10190605000,0.999084,-0.009888,0.041443,-0.000366,0.000000,0.003906,0.019531
10209687000,0.999084,-0.009949,0.041443,-0.000366,0.039062,0.003906,-0.019531
10232759000,0.999084,-0.009949,0.041443,-0.000366,0.007812,0.003906,0.019531
10249830000,0.999084,-0.010010,0.041443,-0.000366,0.007812,0.003906,0.019531
10269805000,0.999084,-0.010010,0.041443,-0.000366,0.007812,0.003906,0.019531
10291345000,0.999084,-0.010010,0.041443,-0.000366,0.046875,0.003906,0.019531
10309662000,0.999084,-0.009949,0.041443,-0.000427,0.000000,0.003906,-0.019531
10330046000,0.999084,-0.010010,0.041443,-0.000427,0.000000,0.003906,0.019531
10349528000,0.999084,-0.010010,0.041443,-0.000427,-0.007812,0.003906,0.019531
10372137000,0.999084,-0.010010,0.041443,-0.000427,-0.007812,0.003906,-0.019531
10389249000,0.999084,-0.010010,0.041443,-0.000427,0.000000,0.003906,0.019531
10409948000,0.999084,-0.010010,0.041443,-0.000366,0.000000,0.003906,0.019531
10429247000,0.999084,-0.010010,0.041443,-0.000366,-0.007812,0.003906,0.019531
10449690000,0.999084,-0.010010,0.041443,-0.000366,0.000000,0.003906,0.019531
10469008000,0.999084,-0.010010,0.041443,-0.000366,0.000000,0.042969,0.019531
10492375000,0.999084,-0.010010,0.041443,-0.000366,0.000000,0.003906,0.019531
10509499000,0.999084,-0.010010,0.041443,-0.000427,0.000000,-0.035156,0.019531
10529472000,0.999084,-0.010010,0.041443,-0.000427,0.031250,0.003906,0.019531
10559075000,0.999084,-0.009949,0.041443,-0.000366,-0.007812,0.003906,0.019531
10569282000,0.999084,-0.010010,0.041382,-0.000427,-0.007812,0.003906,0.019531
10589020000,0.999084,-0.010010,0.041382,-0.000366,-0.007812,0.003906,-0.019531
10608495000,0.999084,-0.010010,0.041382,-0.000366,-0.007812,0.003906,-0.019531
10633874000,0.999084,-0.010010,0.041382,-0.000366,-0.007812,0.003906,0.019531
10648808000,0.999084,-0.010010,0.041382,-0.000366,-0.007812,-0.035156,0.019531
10668745000,0.999084,-0.010010,0.041382,-0.000366,-0.007812,0.003906,-0.019531
10689983000,0.999084,-0.010010,0.041382,-0.000366,-0.007812,0.003906,0.019531
10708636000,0.999084,-0.010010,0.041382,-0.000366,-0.007812,0.003906,-0.019531
10728731000,0.999084,-0.010010,0.041382,-0.000366,-0.007812,0.003906,-0.019531
10747819000,0.999084,-0.010010,0.041382,-0.000366,-0.007812,0.003906,0.058594
10778782000,0.999084,-0.010010,0.041382,-0.000366,0.000000,0.003906,-0.019531
10794780000,0.999084,-0.010010,0.041382,-0.000366,0.000000,0.003906,0.019531
10809941000,0.999084,-0.010010,0.041382,-0.000366,-0.007812,0.003906,0.019531
10828164000,0.999084,-0.010010,0.041382,-0.000366,0.031250,0.003906,0.019531
10852619000,0.999084,-0.010010,0.041382,-0.000366,-0.007812,0.003906,0.019531
10867914000,0.999084,-0.010010,0.041382,-0.000366,-0.007812,0.003906,-0.019531
10887801000,0.999084,-0.010010,0.041382,-0.000366,-0.007812,0.003906,0.019531
10907817000,0.999084,-0.010010,0.041382,-0.000366,-0.007812,0.003906,0.019531
10929307000,0.999084,-0.010010,0.041382,-0.000366,-0.007812,0.003906,-0.019531
10947667000,0.999084,-0.010010,0.041382,-0.000366,0.031250,0.003906,0.019531
10967984000,0.999084,-0.010010,0.041382,-0.000366,-0.007812,0.003906,0.019531
10987353000,0.999084,-0.010010,0.041382,-0.000366,-0.007812,0.003906,0.019531
11007306000,0.999084,-0.010010,0.041382,-0.000366,-0.007812,0.003906,-0.019531
11027262000,0.999084,-0.010010,0.041382,-0.000366,-0.007812,0.003906,0.019531
11048805000,0.999084,-0.010010,0.041382,-0.000366,0.031250,0.003906,0.019531
11068425000,0.999084,-0.010010,0.041382,-0.000366,-0.007812,0.003906,-0.019531
11087514000,0.999084,-0.010010,0.041382,-0.000366,-0.007812,0.003906,-0.019531
11107769000,0.999084,-0.010010,0.041382,-0.000366,-0.007812,0.003906,0.019531
11129664000,0.999084,-0.010010,0.041382,-0.000366,-0.007812,0.003906,0.019531
11146924000,0.999084,-0.010010,0.041382,-0.000366,-0.007812,0.003906,0.019531
11167142000,0.999084,-0.010010,0.041382,-0.000366,0.000000,0.003906,0.019531
11187254000,0.999084,-0.010010,0.041382,-0.000366,0.000000,0.003906,-0.019531
11211480000,0.999084,-0.010010,0.041382,-0.000366,0.000000,0.003906,0.019531
11226748000,0.999084,-0.010010,0.041382,-0.000366,0.000000,0.003906,-0.019531
11246802000,0.999084,-0.010010,0.041382,-0.000366,0.000000,0.003906,-0.019531
11267145000,0.999084,-0.010010,0.041382,-0.000366,0.000000,0.003906,0.019531
11291161000,0.999084,-0.010010,0.041382,-0.000366,-0.007812,0.003906,0.019531
11307136000,0.999084,-0.010010,0.041382,-0.000366,-0.007812,0.003906,0.019531
11327984000,0.999084,-0.010010,0.041382,-0.000366,-0.007812,0.003906,-0.019531
11350226000,0.999084,-0.010010,0.041382,-0.000366,-0.007812,0.003906,0.019531
11366467000,0.999084,-0.010010,0.041382,-0.000366,-0.007812,0.003906,-0.019531
11386944000,0.999084,-0.010010,0.041382,-0.000366,-0.007812,0.003906,0.019531
11406336000,0.999084,-0.010010,0.041382,-0.000366,-0.007812,-0.035156,0.019531
11436707000,0.999084,-0.010010,0.041382,-0.000366,-0.007812,0.003906,-0.019531
11446404000,0.999084,-0.010010,0.041382,-0.000366,-0.007812,0.003906,0.019531
11466667000,0.999084,-0.010010,0.041382,-0.000366,0.000000,0.003906,-0.019531
11486251000,0.999084,-0.010010,0.041382,-0.000366,0.000000,-0.035156,0.019531
11512247000,0.999084,-0.010010,0.041382,-0.000366,0.000000,0.003906,0.027344
11526359000,0.999084,-0.010010,0.041382,-0.000366,0.000000,0.003906,-0.011719
11545909000,0.999084,-0.010010,0.041382,-0.000366,0.000000,0.003906,0.027344
11576724000,0.999084,-0.010010,0.041382,-0.000366,0.000000,0.003906,0.027344
11593360000,0.999084,-0.010010,0.041382,-0.000366,0.000000,0.003906,0.027344
11605737000,0.999084,-0.010010,0.041382,-0.000366,0.000000,0.003906,-0.011719
11625883000,0.999084,-0.010010,0.041382,-0.000366,0.039062,0.003906,-0.011719
11645628000,0.999084,-0.010010,0.041382,-0.000366,0.000000,0.003906,0.027344
11665759000,0.999084,-0.010010,0.041382,-0.000366,0.000000,0.003906,-0.011719
11687196000,0.999084,-0.010010,0.041382,-0.000366,0.000000,0.003906,-0.011719
11711656000,0.999084,-0.010010,0.041382,-0.000366,0.000000,0.003906,-0.011719
11725673000,0.999084,-0.010010,0.041382,-0.000366,0.000000,0.003906,-0.011719
11745460000,0.999084,-0.010010,0.041382,-0.000366,0.000000,0.003906,-0.011719
11766723000,0.999084,-0.010010,0.041382,-0.000366,0.000000,0.003906,0.027344
11790987000,0.999084,-0.010010,0.041382,-0.000366,0.000000,0.003906,0.027344
11805829000,0.999084,-0.010010,0.041382,-0.000366,0.000000,0.003906,-0.011719
11825614000,0.999084,-0.010010,0.041382,-0.000366,0.000000,0.003906,0.027344
11846325000,0.999084,-0.010010,0.041382,-0.000366,0.000000,0.003906,0.027344
11864923000,0.999084,-0.010010,0.041382,-0.000366,0.000000,0.003906,-0.011719
11886601000,0.999084,-0.010010,0.041382,-0.000366,0.000000,0.003906,0.027344
11905764000,0.999084,-0.010010,0.041382,-0.000366,0.000000,0.003906,-0.011719
11925211000,0.999084,-0.010010,0.041382,-0.000366,0.000000,0.003906,0.027344
11944927000,0.999084,-0.010010,0.041382,-0.000366,0.000000,0.003906,0.027344
11976365000,0.999084,-0.010010,0.041382,-0.000366,-0.007812,0.003906,0.027344
11984672000,0.999084,-0.010010,0.041382,-0.000366,-0.007812,0.003906,0.027344
12005100000,0.999084,-0.010010,0.041382,-0.000366,-0.007812,0.003906,0.027344
12025371000,0.999084,-0.010010,0.041382,-0.000366,0.000000,0.003906,0.019531
12054661000,0.999084,-0.010010,0.041382,-0.000366,0.000000,0.003906,-0.019531
12064839000,0.999084,-0.010010,0.041382,-0.000366,0.000000,0.003906,-0.019531
12084803000,0.999084,-0.010010,0.041382,-0.000366,-0.039062,0.003906,0.019531
12106028000,0.999084,-0.010010,0.041382,-0.000366,0.000000,0.003906,-0.058594
12124909000,0.999084,-0.010010,0.041382,-0.000366,0.000000,0.003906,-0.011719
12144775000,0.999084,-0.010010,0.041382,-0.000366,0.000000,0.003906,-0.011719
12164736000,0.999084,-0.010010,0.041382,-0.000366,0.000000,0.003906,0.027344
12184890000,0.999084,-0.010010,0.041382,-0.000366,0.000000,0.003906,0.027344
12215048000,0.999084,-0.010010,0.041382,-0.000366,0.000000,-0.035156,-0.011719
12224608000,0.999084,-0.010010,0.041382,-0.000366,0.000000,0.003906,0.027344
12246820000,0.999084,-0.010010,0.041382,-0.000366,0.000000,0.003906,0.027344
12264205000,0.999084,-0.010010,0.041382,-0.000366,0.000000,0.003906,-0.011719
12294411000,0.999084,-0.010010,0.041382,-0.000366,0.000000,0.003906,-0.011719
12304427000,0.999084,-0.010010,0.041382,-0.000366,0.000000,-0.035156,-0.011719
12324627000,0.999084,-0.010010,0.041382,-0.000366,0.039062,0.003906,0.027344
12344573000,0.999084,-0.010010,0.041382,-0.000366,0.000000,0.003906,-0.011719
12366153000,0.999084,-0.010010,0.041382,-0.000366,0.000000,0.003906,-0.011719
12391353000,0.999084,-0.010010,0.041382,-0.000366,0.000000,0.003906,-0.011719
12404051000,0.999084,-0.010010,0.041382,-0.000366,0.000000,0.003906,0.027344
12424390000,0.999084,-0.010010,0.041382,-0.000366,0.000000,0.003906,0.027344
12444420000,0.999084,-0.010010,0.041382,-0.000366,0.000000,0.003906,0.027344
12474485000,0.999084,-0.010010,0.041382,-0.000366,0.000000,0.003906,-0.011719
12483807000,0.999084,-0.010010,0.041382,-0.000366,0.000000,0.003906,-0.011719
12504239000,0.999084,-0.010010,0.041382,-0.000366,0.039062,0.003906,-0.011719
12524258000,0.999084,-0.010010,0.041382,-0.000366,0.000000,0.003906,-0.011719
12553835000,0.999084,-0.010010,0.041382,-0.000366,0.000000,0.003906,-0.011719
12563401000,0.999084,-0.010010,0.041382,-0.000366,0.000000,0.003906,0.027344
12584029000,0.999084,-0.010010,0.041382,-0.000366,0.000000,0.003906,0.027344
12603939000,0.999084,-0.010010,0.041382,-0.000366,0.000000,-0.035156,-0.011719
12625795000,0.999084,-0.010010,0.041382,-0.000366,0.000000,0.003906,0.027344
12648615000,0.999084,-0.010010,0.041382,-0.000366,0.000000,0.003906,0.027344
12663677000,0.999084,-0.010010,0.041382,-0.000366,0.000000,0.003906,0.027344
12683785000,0.999084,-0.010010,0.041382,-0.000366,0.000000,0.003906,0.019531
12713378000,0.999084,-0.010010,0.041382,-0.000366,0.000000,0.003906,-0.019531
12727709000,0.999084,-0.010010,0.041382,-0.000366,0.000000,0.042969,0.019531
12743589000,0.999084,-0.010010,0.041382,-0.000366,0.000000,0.003906,-0.019531
12763905000,0.999084,-0.010010,0.041382,-0.000366,0.039062,0.003906,-0.019531
12785084000,0.999084,-0.010010,0.041382,-0.000366,-0.039062,-0.035156,0.019531
12803778000,0.999084,-0.010010,0.041382,-0.000366,0.000000,0.003906,0.019531
12823870000,0.999084,-0.010010,0.041382,-0.000366,0.000000,0.003906,0.019531
12843427000,0.999084,-0.010010,0.041382,-0.000366,0.039062,0.003906,0.019531
12872606000,0.999084,-0.010010,0.041382,-0.000366,0.000000,0.003906,-0.019531
12883947000,0.999084,-0.010010,0.041382,-0.000366,0.000000,0.003906,0.019531
12912827000,0.999084,-0.010010,0.041382,-0.000366,0.000000,0.003906,0.019531
12927041000,0.999084,-0.010010,0.041382,-0.000366,0.000000,0.042969,0.019531
12943190000,0.999084,-0.010010,0.041382,-0.000366,0.000000,0.003906,0.019531
12963443000,0.999084,-0.010010,0.041382,-0.000366,0.000000,0.003906,0.019531
12983982000,0.999084,-0.010010,0.041382,-0.000366,0.000000,0.003906,0.019531
13012507000,0.999084,-0.010010,0.041382,-0.000366,0.000000,0.003906,0.019531
13022131000,0.999084,-0.010010,0.041382,-0.000366,0.000000,0.003906,0.019531
13043420000,0.999084,-0.010010,0.041382,-0.000366,0.000000,0.003906,-0.019531
13063460000,0.999084,-0.010010,0.041382,-0.000366,0.000000,0.003906,0.019531
13083463000,0.999084,-0.010010,0.041382,-0.000366,0.000000,0.003906,0.019531
13112019000,0.999084,-0.010010,0.041382,-0.000366,0.000000,0.003906,-0.027344
13122085000,0.999084,-0.010010,0.041382,-0.000366,0.000000,0.003906,0.011719
13143777000,0.999084,-0.010010,0.041382,-0.000366,0.000000,0.042969,0.011719
13163415000,0.999084,-0.010010,0.041382,-0.000366,0.000000,0.003906,0.011719
13183427000,0.999084,-0.010010,0.041382,-0.000366,0.039062,0.003906,0.011719
13212381000,0.999084,-0.010010,0.041382,-0.000366,0.000000,0.003906,0.011719
13222114000,0.999084,-0.010010,0.041382,-0.000366,0.000000,0.003906,0.011719
13243378000,0.999084,-0.010010,0.041382,-0.000366,-0.039062,0.003906,0.011719
13271792000,0.999084,-0.010010,0.041382,-0.000366,0.000000,0.003906,0.011719
13291602000,0.999084,-0.010010,0.041382,-0.000366,0.000000,0.003906,0.011719
13302124000,0.999084,-0.010010,0.041382,-0.000366,0.000000,0.003906,0.011719
13334555000,0.999084,-0.010010,0.041382,-0.000366,0.039062,0.003906,0.011719
13351391000,0.999084,-0.010010,0.041382,-0.000366,0.039062,0.003906,0.011719
13371870000,0.999084,-0.010010,0.041382,-0.000366,0.000000,-0.035156,-0.027344
13390977000,0.999084,-0.010010,0.041382,-0.000366,0.000000,0.003906,-0.027344
13402153000,0.999084,-0.010010,0.041382,-0.000366,0.039062,0.003906,-0.027344
13431859000,0.999084,-0.010010,0.041382,-0.000366,0.039062,-0.035156,-0.027344
13451458000,0.999084,-0.010010,0.041382,-0.000366,-0.007812,0.003906,0.011719
13470689000,0.999084,-0.010010,0.041382,-0.000366,-0.007812,0.003906,0.019531
13494919000,0.999084,-0.010010,0.041382,-0.000366,-0.007812,0.003906,0.019531
13512995000,0.999084,-0.010010,0.041382,-0.000366,-0.007812,0.003906,-0.019531
13531042000,0.999084,-0.010010,0.041382,-0.000366,-0.007812,0.003906,0.019531
13551283000,0.999084,-0.010010,0.041382,-0.000366,-0.007812,0.003906,0.019531
13576586000,0.999084,-0.010010,0.041382,-0.000366,-0.007812,0.003906,-0.019531
13590739000,0.999084,-0.010010,0.041382,-0.000366,-0.007812,-0.035156,-0.019531
13610735000,0.999084,-0.010010,0.041382,-0.000366,0.031250,0.003906,0.019531
13633520000,0.999084,-0.010010,0.041382,-0.000366,-0.007812,0.003906,0.019531
13650366000,0.999084,-0.010010,0.041382,-0.000366,0.031250,0.003906,-0.019531
13670409000,0.999084,-0.010010,0.041382,-0.000366,-0.007812,0.003906,0.019531
13690196000,0.999084,-0.010010,0.041382,-0.000366,-0.007812,0.003906,-0.019531
13711901000,0.999084,-0.010010,0.041382,-0.000366,-0.007812,0.003906,-0.019531
13730372000,0.999084,-0.010010,0.041382,-0.000366,-0.007812,0.003906,-0.019531
13750998000,0.999084,-0.010010,0.041382,-0.000366,-0.007812,0.003906,-0.019531
13770085000,0.999084,-0.010010,0.041382,-0.000366,-0.007812,0.003906,0.019531
13790240000,0.999084,-0.010010,0.041382,-0.000366,-0.007812,0.003906,-0.019531
13816126000,0.999084,-0.010010,0.041382,-0.000366,-0.007812,0.003906,0.019531
13830366000,0.999084,-0.010010,0.041382,-0.000366,-0.007812,0.003906,0.019531
13850125000,0.999084,-0.010010,0.041382,-0.000366,-0.007812,0.003906,-0.019531
13870382000,0.999084,-0.010010,0.041382,-0.000366,-0.007812,0.003906,-0.019531
13894720000,0.999084,-0.010010,0.041382,-0.000366,0.039062,0.003906,0.019531
13910102000,0.999084,-0.010010,0.041382,-0.000366,0.000000,0.003906,-0.011719
13930267000,0.999084,-0.010010,0.041382,-0.000366,-0.007812,0.003906,-0.011719
13950010000,0.999084,-0.010010,0.041382,-0.000366,-0.007812,0.003906,-0.019531
13969456000,0.999084,-0.010010,0.041382,-0.000366,-0.007812,0.003906,0.019531
13989366000,0.999084,-0.010010,0.041382,-0.000366,-0.007812,0.003906,0.019531
14009379000,0.999084,-0.010010,0.041382,-0.000366,-0.007812,0.003906,0.058594
14033321000,0.999084,-0.010010,0.041382,-0.000366,-0.007812,0.003906,0.019531
14049633000,0.999084,-0.010010,0.041382,-0.000366,0.031250,0.003906,-0.019531
14069223000,0.999084,-0.010010,0.041382,-0.000366,-0.007812,0.003906,-0.019531
14089540000,0.999084,-0.010010,0.041382,-0.000366,-0.007812,0.003906,-0.019531
14109017000,0.999084,-0.010010,0.041382,-0.000366,0.031250,0.003906,-0.019531
14129638000,0.999084,-0.010010,0.041382,-0.000366,-0.007812,0.003906,-0.019531
14149114000,0.999084,-0.010010,0.041382,-0.000366,-0.007812,0.003906,0.019531
14174909000,0.999084,-0.010010,0.041382,-0.000366,-0.007812,0.003906,0.019531
14189168000,0.999084,-0.010010,0.041382,-0.000366,-0.007812,0.003906,-0.019531
14209473000,0.999084,-0.010010,0.041382,-0.000366,-0.007812,0.003906,0.019531
14239281000,0.999084,-0.010010,0.041382,-0.000366,0.031250,0.003906,0.019531
14249087000,0.999084,-0.010010,0.041382,-0.000366,-0.007812,0.003906,0.019531
14268549000,0.999084,-0.010010,0.041382,-0.000366,-0.007812,0.003906,0.019531
14289056000,0.999084,-0.010010,0.041382,-0.000366,-0.007812,0.003906,-0.019531
14308627000,0.999084,-0.010010,0.041382,-0.000366,-0.007812,0.003906,-0.019531
14330333000,0.999084,-0.010010,0.041382,-0.000366,-0.007812,-0.035156,-0.019531
14349230000,0.999084,-0.010010,0.041382,-0.000366,-0.007812,0.003906,-0.019531
14373609000,0.999084,-0.010010,0.041382,-0.000366,-0.007812,0.003906,-0.019531
14389349000,0.999084,-0.010010,0.041382,-0.000366,-0.007812,-0.035156,0.019531
14408947000,0.999084,-0.010010,0.041382,-0.000366,-0.007812,0.003906,-0.019531
14428711000,0.999084,-0.010010,0.041382,-0.000366,-0.007812,0.003906,0.019531
14450909000,0.999084,-0.010010,0.041382,-0.000366,0.031250,0.003906,0.019531
14468708000,0.999084,-0.010010,0.041382,-0.000366,-0.007812,0.003906,-0.019531
14488428000,0.999084,-0.010010,0.041382,-0.000366,-0.007812,0.003906,-0.019531
14508680000,0.999084,-0.010010,0.041382,-0.000366,0.031250,0.042969,0.019531
14535111000,0.999084,-0.010010,0.041382,-0.000366,-0.007812,0.003906,-0.019531
14553318000,0.999084,-0.010010,0.041382,-0.000366,-0.007812,0.003906,0.019531
14568564000,0.999084,-0.010010,0.041382,-0.000366,-0.007812,0.003906,-0.019531
14587798000,0.999084,-0.010010,0.041382,-0.000366,-0.046875,0.003906,0.019531
14612947000,0.999084,-0.010010,0.041382,-0.000366,-0.007812,0.003906,0.019531
14627414000,0.999084,-0.010010,0.041382,-0.000366,0.031250,0.003906,-0.019531
14647499000,0.999084,-0.010010,0.041382,-0.000366,-0.007812,0.003906,-0.019531
14671470000,0.999084,-0.010010,0.041382,-0.000366,-0.007812,0.003906,-0.019531
14687672000,0.999084,-0.010010,0.041382,-0.000366,-0.007812,0.003906,-0.019531
14707716000,0.999084,-0.010010,0.041382,-0.000366,-0.007812,0.003906,0.019531
14728407000,0.999084,-0.010010,0.041382,-0.000366,-0.007812,0.003906,0.019531
14750267000,0.999084,-0.010010,0.041382,-0.000366,-0.007812,0.003906,0.019531
14767555000,0.999084,-0.010010,0.041382,-0.000366,-0.007812,0.003906,-0.019531
14787651000,0.999084,-0.010010,0.041382,-0.000366,-0.007812,0.042969,0.019531
14808083000,0.999084,-0.010010,0.041382,-0.000366,-0.007812,0.003906,-0.019531
14833346000,0.999084,-0.010010,0.041382,-0.000366,-0.007812,0.003906,0.019531
14847521000,0.999084,-0.010010,0.041382,-0.000366,-0.007812,0.003906,-0.019531
14867423000,0.999084,-0.010010,0.041382,-0.000366,-0.007812,0.003906,-0.019531
14887859000,0.999084,-0.010010,0.041382,-0.000366,-0.007812,0.003906,0.019531
14912135000,0.999084,-0.010010,0.041382,-0.000366,-0.007812,0.003906,0.019531
14926650000,0.999084,-0.010010,0.041382,-0.000366,0.031250,0.003906,-0.019531
14946968000,0.999084,-0.010010,0.041382,-0.000366,0.031250,0.003906,-0.019531
14967069000,0.999084,-0.010010,0.041382,-0.000366,-0.007812,0.003906,-0.019531
14986803000,0.999084,-0.010010,0.041382,-0.000366,-0.007812,0.003906,-0.019531
15006710000,0.999084,-0.010010,0.041382,-0.000366,-0.007812,0.003906,0.019531
15027503000,0.999084,-0.010010,0.041382,-0.000366,-0.007812,-0.035156,0.019531
15053030000,0.999084,-0.010010,0.041382,-0.000366,-0.007812,0.003906,0.019531
15066982000,0.999084,-0.010010,0.041382,-0.000366,-0.007812,0.003906,0.019531
15086353000,0.999084,-0.010010,0.041382,-0.000366,-0.007812,0.003906,-0.019531
15106609000,0.999084,-0.010010,0.041382,-0.000366,-0.007812,0.003906,-0.019531
15128770000,0.999084,-0.010010,0.041382,-0.000366,0.000000,0.003906,-0.019531
15146815000,0.999084,-0.010010,0.041382,-0.000366,0.039062,0.003906,0.019531
15166092000,0.999084,-0.010010,0.041382,-0.000366,0.000000,0.003906,-0.019531
15186393000,0.999084,-0.010010,0.041382,-0.000366,0.039062,0.003906,0.019531
15208906000,0.999084,-0.010010,0.041382,-0.000366,0.000000,0.003906,-0.019531
15231016000,0.999084,-0.010010,0.041382,-0.000366,0.000000,0.003906,0.019531
15246178000,0.999084,-0.010010,0.041382,-0.000366,0.000000,0.003906,-0.019531
15265955000,0.999084,-0.010010,0.041382,-0.000366,0.000000,0.003906,-0.019531
15287463000,0.999084,-0.010010,0.041382,-0.000366,0.000000,0.003906,0.058594
15311150000,0.999084,-0.010010,0.041382,-0.000366,0.000000,0.003906,0.019531
15326191000,0.999084,-0.010010,0.041382,-0.000366,0.000000,-0.035156,0.019531
15345542000,0.999084,-0.010010,0.041382,-0.000366,0.000000,0.003906,-0.019531
15372131000,0.999084,-0.010010,0.041382,-0.000366,0.000000,0.003906,-0.019531
15386210000,0.999084,-0.010010,0.041382,-0.000366,0.000000,0.042969,0.019531
15405829000,0.999084,-0.010010,0.041382,-0.000366,0.000000,-0.035156,0.019531
15425976000,0.999084,-0.010010,0.041382,-0.000366,0.000000,0.003906,-0.019531
15446442000,0.999084,-0.010010,0.041382,-0.000366,0.000000,0.003906,-0.027344
15471367000,0.999084,-0.010010,0.041382,-0.000366,0.000000,0.003906,-0.019531
15485412000,0.999084,-0.010010,0.041382,-0.000366,0.000000,0.003906,0.019531
15505389000,0.999084,-0.010010,0.041382,-0.000366,0.000000,0.003906,-0.019531
15529548000,0.999084,-0.010010,0.041382,-0.000366,0.000000,0.042969,0.019531
15545032000,0.999084,-0.010010,0.041382,-0.000366,0.000000,0.003906,-0.019531
15565556000,0.999084,-0.010010,0.041382,-0.000366,0.000000,0.003906,-0.019531
15589821000,0.999084,-0.010010,0.041382,-0.000366,0.000000,0.003906,0.019531
15605022000,0.999084,-0.010010,0.041382,-0.000366,0.000000,0.003906,0.019531
15628692000,0.999084,-0.010010,0.041382,-0.000366,0.000000,0.003906,0.019531
15645025000,0.999084,-0.010010,0.041382,-0.000366,0.000000,0.003906,0.019531
15665726000,0.999084,-0.010010,0.041382,-0.000366,0.000000,0.003906,-0.019531
15685188000,0.999084,-0.010010,0.041382,-0.000366,0.000000,0.003906,0.019531
15705626000,0.999084,-0.010010,0.041382,-0.000366,0.039062,0.003906,0.019531
15724923000,0.999084,-0.010010,0.041382,-0.000366,0.000000,0.003906,0.011719
15745458000,0.999084,-0.010010,0.041382,-0.000366,0.000000,0.003906,0.011719
15775441000,0.999084,-0.010010,0.041382,-0.000366,0.000000,0.003906,0.050781
15785022000,0.999084,-0.010010,0.041382,-0.000366,0.000000,0.003906,-0.027344
15805237000,0.999084,-0.010010,0.041382,-0.000366,0.000000,0.003906,0.011719
15824526000,0.999084,-0.010010,0.041382,-0.000366,0.000000,0.003906,-0.027344
15844862000,0.999084,-0.010010,0.041382,-0.000366,0.000000,-0.035156,-0.027344
15864358000,0.999084,-0.010010,0.041382,-0.000366,0.039062,0.003906,-0.027344
15885003000,0.999084,-0.010010,0.041382,-0.000366,0.000000,0.003906,0.011719
15904543000,0.999084,-0.010010,0.041382,-0.000366,0.000000,0.003906,0.011719
15934833000,0.999084,-0.010010,0.041382,-0.000366,0.031250,0.003906,0.011719
15949033000,0.999084,-0.010010,0.041382,-0.000366,-0.007812,0.003906,0.011719
15964901000,0.999084,-0.010010,0.041382,-0.000366,-0.007812,0.003906,0.011719
15984504000,0.999084,-0.010010,0.041382,-0.000366,0.031250,0.003906,0.011719
16004627000,0.999084,-0.010010,0.041382,-0.000366,-0.007812,0.003906,0.011719
16024117000,0.999084,-0.010010,0.041382,-0.000366,-0.007812,0.003906,0.011719
16044630000,0.999084,-0.010010,0.041382,-0.000366,-0.007812,0.003906,0.011719
16064367000,0.999084,-0.010010,0.041382,-0.000366,-0.007812,0.003906,0.011719
16084567000,0.999084,-0.010010,0.041382,-0.000366,-0.007812,0.003906,0.011719
16104141000,0.999084,-0.010010,0.041382,-0.000366,-0.007812,0.003906,-0.027344
16124407000,0.999084,-0.010010,0.041382,-0.000366,-0.007812,-0.035156,-0.027344
16145036000,0.999084,-0.010010,0.041382,-0.000366,-0.007812,0.003906,-0.027344
16176274000,0.999084,-0.010010,0.041382,-0.000366,-0.007812,-0.035156,0.011719
16183697000,0.999084,-0.010010,0.041382,-0.000366,-0.007812,0.003906,0.011719
16204544000,0.999084,-0.010010,0.041382,-0.000366,-0.007812,0.003906,0.011719
16233307000,0.999084,-0.010010,0.041382,-0.000366,-0.007812,-0.035156,0.050781
16243614000,0.999084,-0.010010,0.041382,-0.000366,0.031250,0.003906,0.011719
16264006000,0.999084,-0.010010,0.041382,-0.000366,-0.007812,0.003906,-0.027344
16284070000,0.999084,-0.010010,0.041382,-0.000366,-0.007812,0.003906,0.011719
16312843000,0.999084,-0.010010,0.041382,-0.000366,-0.007812,0.003906,0.011719
16323057000,0.999084,-0.010010,0.041382,-0.000366,-0.007812,0.003906,-0.027344
16343967000,0.999084,-0.010010,0.041382,-0.000366,0.031250,0.003906,0.011719
16364659000,0.999084,-0.010010,0.041382,-0.000366,0.031250,0.003906,0.011719
16388870000,0.999084,-0.010010,0.041382,-0.000366,-0.007812,0.003906,-0.027344
16403460000,0.999084,-0.010010,0.041382,-0.000366,-0.007812,0.003906,-0.027344
16423782000,0.999084,-0.010010,0.041382,-0.000366,0.031250,0.003906,-0.027344
16443890000,0.999084,-0.010010,0.041382,-0.000366,-0.007812,0.003906,0.011719
16472510000,0.999084,-0.010010,0.041382,-0.000366,-0.007812,0.003906,0.011719
16483276000,0.999084,-0.010010,0.041382,-0.000366,-0.007812,0.003906,0.019531
16503755000,0.999084,-0.010010,0.041382,-0.000366,0.031250,0.003906,0.019531
16523949000,0.999084,-0.010010,0.041382,-0.000366,-0.007812,0.003906,0.019531
16552108000,0.999084,-0.010010,0.041382,-0.000366,-0.007812,0.003906,0.011719
16562618000,0.999084,-0.010010,0.041382,-0.000366,-0.007812,0.003906,0.011719
16585750000,0.999084,-0.010010,0.041382,-0.000366,0.031250,0.003906,0.011719
16603828000,0.999084,-0.010010,0.041382,-0.000366,-0.007812,0.003906,0.011719
16632394000,0.999084,-0.010010,0.041382,-0.000366,-0.007812,0.003906,-0.027344
16642567000,0.999084,-0.010010,0.041382,-0.000366,-0.007812,0.003906,-0.027344
16663440000,0.999084,-0.010010,0.041382,-0.000366,-0.007812,0.003906,0.011719
16692292000,0.999084,-0.010010,0.041382,-0.000366,-0.007812,0.003906,0.011719
16702212000,0.999084,-0.010010,0.041382,-0.000366,-0.007812,0.003906,-0.027344
16723386000,0.999084,-0.010010,0.041382,-0.000366,0.031250,0.003906,-0.019531
16743044000,0.999084,-0.010010,0.041382,-0.000366,-0.007812,0.042969,0.019531
16763400000,0.999084,-0.010010,0.041382,-0.000366,-0.007812,0.003906,-0.019531
16783393000,0.999084,-0.010010,0.041382,-0.000366,-0.007812,0.003906,0.019531
16811921000,0.999084,-0.010010,0.041382,-0.000366,-0.007812,0.003906,0.019531
16827947000,0.999084,-0.010010,0.041382,-0.000366,-0.007812,0.003906,-0.019531
16843060000,0.999084,-0.010010,0.041382,-0.000366,-0.007812,0.003906,-0.019531
16863352000,0.999084,-0.010010,0.041382,-0.000366,-0.007812,0.003906,0.019531
16891515000,0.999084,-0.010010,0.041382,-0.000366,-0.007812,0.003906,-0.019531
16911818000,0.999084,-0.010010,0.041382,-0.000366,0.031250,0.003906,0.019531
16922164000,0.999084,-0.010010,0.041382,-0.000366,-0.007812,0.003906,0.019531
16943377000,0.999084,-0.010010,0.041382,-0.000366,-0.007812,0.003906,-0.019531
16971917000,0.999084,-0.010010,0.041382,-0.000366,-0.007812,-0.035156,0.019531
16987111000,0.999084,-0.010010,0.041382,-0.000366,-0.007812,0.003906,0.019531
17014710000,0.999084,-0.010010,0.041382,-0.000366,-0.007812,0.003906,0.019531
17033113000,0.999084,-0.010010,0.041382,-0.000366,-0.007812,0.003906,0.019531
17051423000,0.999084,-0.010010,0.041382,-0.000366,-0.007812,0.003906,0.019531
17070835000,0.999084,-0.010010,0.041382,-0.000366,-0.007812,0.042969,0.019531
17097079000,0.999084,-0.010010,0.041382,-0.000366,0.000000,0.003906,0.019531
17110878000,0.999084,-0.010010,0.041382,-0.000366,0.000000,0.003906,-0.019531
17130788000,0.999084,-0.010010,0.041382,-0.000366,0.000000,0.003906,0.019531
17152991000,0.999084,-0.010010,0.041382,-0.000366,0.000000,0.003906,0.019531
17162169000,0.999084,-0.010010,0.041382,-0.000366,0.039062,0.003906,0.019531
17190901000,0.999084,-0.010010,0.041382,-0.000366,0.000000,0.003906,-0.019531
17210786000,0.999084,-0.010010,0.041382,-0.000366,0.039062,0.003906,0.019531
17230660000,0.999084,-0.010010,0.041382,-0.000366,0.039062,0.003906,0.019531
17242147000,0.999084,-0.010010,0.041382,-0.000366,0.031250,0.003906,0.019531
17270364000,0.999084,-0.010010,0.041382,-0.000366,-0.007812,0.003906,0.019531
17291460000,0.999084,-0.010010,0.041382,-0.000366,-0.007812,0.003906,0.019531
17311080000,0.999084,-0.010010,0.041382,-0.000366,-0.007812,0.042969,0.019531
17330936000,0.999084,-0.010010,0.041382,-0.000366,-0.007812,0.003906,-0.019531
17350486000,0.999084,-0.010010,0.041382,-0.000366,-0.007812,-0.035156,0.019531
17370347000,0.999084,-0.010010,0.041382,-0.000366,-0.007812,0.003906,0.019531
17390290000,0.999084,-0.010010,0.041382,-0.000366,-0.007812,0.003906,-0.019531
17410009000,0.999084,-0.010010,0.041382,-0.000366,-0.007812,0.003906,0.019531
17430049000,0.999084,-0.010010,0.041382,-0.000366,-0.007812,0.003906,-0.019531
17454306000,0.999084,-0.010010,0.041382,-0.000366,-0.007812,0.003906,0.019531
17470125000,0.999084,-0.010010,0.041382,-0.000366,-0.007812,0.003906,0.019531
17489710000,0.999084,-0.010010,0.041382,-0.000366,-0.007812,0.003906,0.019531
17512798000,0.999084,-0.010010,0.041382,-0.000366,-0.007812,0.003906,-0.019531
17530005000,0.999084,-0.010010,0.041382,-0.000366,-0.007812,0.003906,0.019531
17551086000,0.999084,-0.010010,0.041382,-0.000366,-0.007812,0.003906,0.019531
17569898000,0.999084,-0.010010,0.041382,-0.000366,-0.007812,0.003906,0.019531
17589941000,0.999084,-0.010010,0.041382,-0.000366,-0.007812,-0.035156,0.019531
17613377000,0.999084,-0.010010,0.041382,-0.000366,-0.007812,0.003906,0.019531
17629751000,0.999084,-0.010010,0.041382,-0.000366,-0.007812,0.003906,-0.019531
17649506000,0.999084,-0.010010,0.041382,-0.000366,-0.007812,0.003906,0.019531
17669771000,0.999084,-0.010010,0.041382,-0.000366,-0.007812,0.003906,0.019531
17689683000,0.999084,-0.010010,0.041382,-0.000366,0.000000,0.003906,-0.019531
17711516000,0.999084,-0.010010,0.041382,-0.000366,0.000000,-0.035156,0.019531
17729679000,0.999084,-0.010010,0.041382,-0.000366,0.039062,0.003906,0.019531
17749572000,0.999084,-0.010010,0.041382,-0.000366,0.000000,0.003906,-0.019531
17772900000,0.999084,-0.010010,0.041382,-0.000366,-0.007812,0.003906,-0.019531
17789684000,0.999084,-0.010010,0.041382,-0.000366,-0.007812,0.003906,0.019531
17811971000,0.999084,-0.010010,0.041382,-0.000366,-0.007812,0.003906,-0.011719
17828951000,0.999084,-0.010010,0.041382,-0.000366,-0.007812,0.003906,0.027344
17849322000,0.999084,-0.010010,0.041382,-0.000366,-0.007812,0.003906,0.027344
17868820000,0.999084,-0.010010,0.041382,-0.000366,-0.007812,0.003906,0.027344
17888614000,0.999084,-0.010010,0.041382,-0.000366,-0.007812,0.003906,0.027344
17908605000,0.999084,-0.010010,0.041382,-0.000366,-0.007812,0.003906,0.027344
17929478000,0.999084,-0.010010,0.041382,-0.000366,-0.007812,0.003906,0.027344
17950638000,0.999084,-0.010010,0.041382,-0.000366,0.031250,0.003906,0.027344
17968456000,0.999084,-0.010010,0.041382,-0.000366,-0.007812,0.003906,0.027344
17988862000,0.999084,-0.010010,0.041382,-0.000366,-0.007812,0.003906,0.027344
18008470000,0.999084,-0.010010,0.041382,-0.000366,-0.007812,0.003906,0.019531
18028483000,0.999084,-0.010010,0.041382,-0.000366,-0.007812,0.003906,0.019531
18050130000,0.999084,-0.010010,0.041382,-0.000366,-0.007812,0.003906,0.019531
18070043000,0.999084,-0.010010,0.041382,-0.000366,-0.007812,0.003906,0.019531
18088045000,0.999084,-0.010010,0.041382,-0.000366,-0.007812,0.003906,0.019531
18108882000,0.999084,-0.010010,0.041382,-0.000366,-0.007812,0.003906,0.019531
18132226000,0.999084,-0.010010,0.041382,-0.000366,-0.007812,0.003906,-0.019531
18147958000,0.999084,-0.010010,0.041382,-0.000366,0.031250,-0.035156,0.019531
18168024000,0.999084,-0.010010,0.041382,-0.000366,-0.007812,0.003906,0.019531
18189723000,0.999084,-0.010010,0.041382,-0.000366,-0.007812,0.003906,-0.019531
18207889000,0.999084,-0.010010,0.041382,-0.000366,-0.007812,0.003906,0.019531
18228134000,0.999084,-0.010010,0.041382,-0.000366,-0.007812,0.003906,0.019531
18248414000,0.999084,-0.010010,0.041382,-0.000366,-0.007812,0.003906,-0.019531
18273429000,0.999084,-0.010010,0.041382,-0.000366,0.000000,0.003906,-0.019531
18287705000,0.999084,-0.010010,0.041382,-0.000366,0.000000,0.003906,0.019531
18307599000,0.999084,-0.010010,0.041382,-0.000366,0.000000,0.003906,0.019531
18329037000,0.999084,-0.010010,0.041382,-0.000366,0.039062,0.003906,-0.019531
18347419000,0.999084,-0.010010,0.041382,-0.000366,-0.007812,0.003906,-0.019531
18367796000,0.999084,-0.010010,0.041382,-0.000366,0.031250,0.003906,-0.019531
18387283000,0.999084,-0.010010,0.041382,-0.000366,-0.007812,0.003906,0.019531
18407548000,0.999084,-0.010010,0.041382,-0.000366,-0.007812,0.003906,-0.019531
18433093000,0.999084,-0.010010,0.041382,-0.000366,-0.007812,0.003906,0.019531
18447178000,0.999084,-0.010010,0.041382,-0.000366,0.031250,0.003906,0.019531
18467434000,0.999084,-0.010010,0.041382,-0.000366,0.031250,0.003906,0.019531
18487748000,0.999084,-0.010010,0.041382,-0.000366,-0.007812,0.042969,0.019531
18506991000,0.999084,-0.010010,0.041382,-0.000366,0.031250,0.003906,0.019531
18532386000,0.999084,-0.010010,0.041382,-0.000366,-0.007812,0.003906,-0.019531
18546775000,0.999084,-0.010010,0.041382,-0.000366,0.031250,0.003906,0.019531
18567411000,0.999084,-0.010010,0.041382,-0.000366,0.031250,-0.035156,0.019531
18588179000,0.999084,-0.010010,0.041382,-0.000366,-0.007812,0.003906,-0.019531
18606686000,0.999084,-0.010010,0.041382,-0.000366,-0.007812,0.003906,0.019531
18636673000,0.999084,-0.010010,0.041382,-0.000366,-0.007812,0.003906,0.019531
18647219000,0.999084,-0.010010,0.041382,-0.000366,-0.007812,0.003906,0.019531
18666685000,0.999084,-0.010010,0.041382,-0.000366,-0.007812,0.003906,0.019531
18687505000,0.999084,-0.010010,0.041382,-0.000366,-0.007812,0.042969,0.019531
18710951000,0.999084,-0.010010,0.041382,-0.000366,-0.007812,0.003906,0.019531
18726885000,0.999084,-0.010010,0.041382,-0.000366,-0.007812,0.003906,-0.019531
18746567000,0.999084,-0.010010,0.041382,-0.000366,-0.007812,0.003906,-0.019531
18771495000,0.999084,-0.010010,0.041382,-0.000366,-0.007812,0.003906,-0.019531
18786203000,0.999084,-0.010010,0.041382,-0.000366,-0.007812,0.003906,0.019531
18806302000,0.999084,-0.010010,0.041382,-0.000366,-0.046875,0.003906,0.019531
18827448000,0.999084,-0.010010,0.041382,-0.000366,-0.007812,0.003906,0.019531
18852204000,0.999084,-0.010010,0.041382,-0.000366,0.000000,0.003906,-0.019531
18866435000,0.999084,-0.010010,0.041382,-0.000366,0.039062,0.003906,0.019531
18891335000,0.999084,-0.010010,0.041382,-0.000366,0.000000,0.003906,-0.019531
18906226000,0.999084,-0.010010,0.041382,-0.000366,0.000000,0.003906,0.019531
18926277000,0.999084,-0.010010,0.041382,-0.000366,0.000000,0.003906,0.019531
18945869000,0.999084,-0.010010,0.041382,-0.000366,0.000000,0.003906,0.019531
18965909000,0.999084,-0.010010,0.041382,-0.000366,0.000000,0.003906,0.019531
18986006000,0.999084,-0.010010,0.041382,-0.000366,0.000000,0.003906,0.019531
19005674000,0.999084,-0.010010,0.041382,-0.000366,0.000000,0.003906,0.019531
19025812000,0.999084,-0.010010,0.041382,-0.000366,0.039062,0.003906,0.019531
19046032000,0.999084,-0.010010,0.041382,-0.000366,0.000000,0.042969,0.019531
19065429000,0.999084,-0.010010,0.041382,-0.000366,0.000000,0.003906,0.019531
19086178000,0.999084,-0.010010,0.041382,-0.000366,0.000000,0.003906,0.019531
19111931000,0.999084,-0.010010,0.041382,-0.000366,0.000000,0.003906,0.019531
19125429000,0.999084,-0.010010,0.041382,-0.000366,0.000000,0.003906,0.019531
19146149000,0.999084,-0.010010,0.041382,-0.000366,0.000000,0.003906,-0.019531
19165848000,0.999084,-0.010010,0.041382,-0.000366,0.000000,0.003906,-0.019531
19190372000,0.999084,-0.010010,0.041382,-0.000366,0.000000,0.003906,0.019531
19205212000,0.999084,-0.010010,0.041382,-0.000366,0.000000,0.003906,-0.019531
19225441000,0.999084,-0.010010,0.041382,-0.000366,0.000000,0.003906,0.058594
19247176000,0.999084,-0.010010,0.041382,-0.000366,0.000000,0.003906,-0.019531
19275559000,0.999084,-0.010010,0.041382,-0.000366,0.000000,0.003906,0.019531
19284986000,0.999084,-0.010010,0.041382,-0.000366,0.000000,0.003906,0.058594
19305136000,0.999084,-0.010010,0.041382,-0.000366,0.000000,0.003906,0.019531
19325005000,0.999084,-0.010010,0.041382,-0.000366,0.000000,0.003906,0.019531
19352555000,0.999084,-0.010010,0.041382,-0.000366,0.039062,0.003906,0.019531
19365986000,0.999084,-0.010010,0.041382,-0.000366,0.000000,0.003906,0.019531
19385487000,0.999084,-0.010010,0.041382,-0.000366,0.000000,0.003906,0.019531
19404905000,0.999084,-0.010010,0.041382,-0.000366,-0.039062,0.003906,0.019531
19424630000,0.999084,-0.010010,0.041382,-0.000366,0.000000,0.003906,0.011719
19453128000,0.999084,-0.010010,0.041382,-0.000366,0.000000,0.003906,0.011719
19464942000,0.999084,-0.010010,0.041382,-0.000366,0.000000,0.003906,0.011719
19489623000,0.999084,-0.010010,0.041382,-0.000366,0.039062,0.003906,0.011719
19504607000,0.999084,-0.010010,0.041382,-0.000366,0.039062,0.003906,0.011719
19525028000,0.999084,-0.010010,0.041382,-0.000366,0.000000,0.003906,0.011719
19544693000,0.999084,-0.010010,0.041382,-0.000366,-0.007812,0.003906,0.011719
19565488000,0.999084,-0.010010,0.041382,-0.000366,-0.007812,0.003906,0.011719
19589947000,0.999084,-0.010010,0.041382,-0.000366,-0.007812,0.003906,-0.027344
19604647000,0.999084,-0.010010,0.041382,-0.000366,-0.007812,0.003906,0.011719
19625657000,0.999084,-0.010010,0.041382,-0.000366,-0.007812,0.003906,0.011719
19644394000,0.999084,-0.010010,0.041382,-0.000366,-0.007812,0.003906,0.011719
19674392000,0.999084,-0.010010,0.041382,-0.000366,-0.007812,0.003906,0.011719
19684154000,0.999084,-0.010010,0.041382,-0.000366,-0.007812,0.003906,0.011719
19704089000,0.999084,-0.010010,0.041382,-0.000366,-0.007812,0.003906,-0.027344
19724313000,0.999084,-0.010010,0.041382,-0.000366,-0.007812,0.003906,-0.027344
19754809000,0.999084,-0.010010,0.041382,-0.000366,0.000000,0.003906,-0.027344
19763394000,0.999084,-0.010010,0.041382,-0.000366,-0.039062,0.003906,0.011719
19784405000,0.999084,-0.010010,0.041382,-0.000366,0.000000,0.003906,0.011719
19804356000,0.999084,-0.010010,0.041382,-0.000366,0.000000,-0.035156,-0.019531
19824129000,0.999084,-0.010010,0.041382,-0.000366,0.000000,0.003906,0.019531
19853838000,0.999084,-0.010010,0.041382,-0.000366,0.000000,0.003906,-0.019531
19863649000,0.999084,-0.010010,0.041382,-0.000366,0.000000,0.003906,0.019531
19884985000,0.999084,-0.010010,0.041382,-0.000366,0.039062,0.003906,0.019531
19904046000,0.999084,-0.010010,0.041382,-0.000366,0.000000,0.003906,0.019531
19924005000,0.999084,-0.010010,0.041382,-0.000366,0.039062,0.003906,0.019531
19944085000,0.999084,-0.010010,0.041382,-0.000366,0.000000,-0.035156,0.019531
19973172000,0.999084,-0.010010,0.041382,-0.000366,0.000000,0.003906,0.019531
19987988000,0.999084,-0.010010,0.041382,-0.000366,0.000000,0.003906,0.019531
20003761000,0.999084,-0.010010,0.041382,-0.000366,0.000000,0.003906,0.019531
20023752000,0.999084,-0.010010,0.041382,-0.000366,0.000000,0.003906,0.019531
20053286000,0.999084,-0.010010,0.041382,-0.000366,0.000000,0.003906,-0.019531
20068955000,0.999084,-0.010010,0.041382,-0.000366,0.000000,0.003906,0.019531
20083588000,0.999084,-0.010010,0.041382,-0.000366,0.000000,0.003906,-0.019531
20104391000,0.999084,-0.010010,0.041382,-0.000366,0.000000,0.003906,0.019531
20129159000,0.999084,-0.010010,0.041382,-0.000366,0.000000,0.003906,0.019531
20144050000,0.999084,-0.010010,0.041382,-0.000366,0.000000,0.003906,0.019531
20163779000,0.999084,-0.010010,0.041382,-0.000366,-0.039062,0.003906,-0.019531
20183443000,0.999084,-0.010010,0.041382,-0.000366,0.000000,0.003906,0.019531
20208237000,0.999084,-0.010010,0.041382,-0.000366,0.000000,0.003906,0.019531
20223528000,0.999084,-0.010010,0.041382,-0.000366,0.000000,0.003906,0.019531
20243409000,0.999084,-0.010010,0.041382,-0.000366,0.000000,0.003906,0.019531
20263423000,0.999084,-0.010010,0.041382,-0.000366,0.039062,0.003906,0.019531
20292123000,0.999084,-0.010010,0.041382,-0.000366,0.000000,0.003906,0.011719
20302141000,0.999084,-0.010010,0.041382,-0.000366,0.000000,0.003906,0.011719
20324162000,0.999084,-0.010010,0.041382,-0.000366,0.039062,0.003906,-0.027344
20343459000,0.999084,-0.010010,0.041382,-0.000366,0.000000,0.042969,0.011719
20374160000,0.999084,-0.010010,0.041382,-0.000366,0.000000,0.003906,-0.027344
20382386000,0.999084,-0.010010,0.041382,-0.000366,0.039062,0.003906,-0.027344
20403802000,0.999084,-0.010010,0.041382,-0.000366,0.039062,0.003906,0.011719
20428653000,0.999084,-0.010010,0.041382,-0.000366,0.000000,0.003906,-0.027344
20443267000,0.999084,-0.010010,0.041382,-0.000366,-0.007812,0.003906,0.011719
20466346000,0.999084,-0.010010,0.041382,-0.000366,-0.007812,0.003906,-0.019531
20483358000,0.999084,-0.010010,0.041382,-0.000366,-0.007812,-0.035156,-0.019531
20511677000,0.999084,-0.010010,0.041382,-0.000366,-0.007812,0.003906,-0.019531
20522153000,0.999084,-0.010010,0.041382,-0.000366,-0.007812,0.003906,-0.019531
20543393000,0.999084,-0.010010,0.041382,-0.000366,-0.007812,-0.035156,0.019531
20571602000,0.999084,-0.010010,0.041382,-0.000366,-0.007812,0.042969,-0.019531
20582399000,0.999084,-0.010010,0.041382,-0.000366,0.031250,0.003906,-0.019531
20612206000,0.999084,-0.010010,0.041382,-0.000366,0.031250,0.003906,-0.019531
20631441000,0.999084,-0.010010,0.041382,-0.000366,-0.007812,0.003906,0.019531
20642142000,0.999084,-0.010010,0.041382,-0.000366,-0.007812,0.003906,-0.019531
20663410000,0.999084,-0.010010,0.041382,-0.000366,-0.046875,0.003906,0.019531
20691955000,0.999084,-0.010010,0.041382,-0.000366,-0.007812,0.003906,-0.019531
20710817000,0.999084,-0.010010,0.041382,-0.000366,0.000000,0.003906,-0.019531
20736800000,0.999084,-0.010010,0.041382,-0.000366,0.000000,0.003906,0.019531
20751641000,0.999084,-0.010010,0.041382,-0.000366,0.000000,0.003906,0.019531
20771472000,0.999084,-0.010010,0.041382,-0.000366,0.000000,-0.035156,0.019531
20794917000,0.999084,-0.010010,0.041382,-0.000366,0.039062,0.003906,-0.019531
20811242000,0.999084,-0.010010,0.041382,-0.000366,0.000000,0.003906,0.019531
20831195000,0.999084,-0.010010,0.041382,-0.000366,0.000000,0.003906,-0.019531
20850211000,0.999084,-0.010010,0.041382,-0.000366,-0.007812,0.003906,-0.019531
20875947000,0.999084,-0.010010,0.041382,-0.000366,-0.007812,0.003906,0.019531
20890969000,0.999084,-0.010010,0.041382,-0.000366,0.000000,0.003906,0.019531
20911341000,0.999084,-0.010010,0.041382,-0.000366,0.039062,0.003906,-0.019531
20931043000,0.999084,-0.010010,0.041382,-0.000366,-0.007812,-0.035156,-0.019531
20953245000,0.999084,-0.010010,0.041382,-0.000366,-0.007812,0.003906,0.019531
20976697000,0.999084,-0.010010,0.041443,-0.000366,-0.007812,0.003906,0.019531
20991086000,0.999084,-0.010010,0.041443,-0.000366,0.000000,0.003906,0.019531
21010749000,0.999084,-0.010071,0.041382,-0.000366,0.000000,0.003906,-0.019531
21030748000,0.999084,-0.010071,0.041382,-0.000366,0.000000,0.003906,-0.019531
21050562000,0.999084,-0.010071,0.041443,-0.000366,0.000000,0.003906,0.019531
21075168000,0.999084,-0.010071,0.041443,-0.000366,0.000000,0.003906,-0.019531
21090288000,0.999084,-0.010071,0.041382,-0.000366,0.000000,0.003906,-0.019531
21110115000,0.999084,-0.010071,0.041382,-0.000366,0.000000,0.003906,-0.019531
21131220000,0.999084,-0.010071,0.041382,-0.000366,0.000000,0.003906,-0.019531
21154249000,0.999084,-0.010071,0.041443,-0.000366,0.039062,0.003906,-0.019531
21169893000,0.999084,-0.010071,0.041443,-0.000366,0.039062,0.003906,-0.019531
21192522000,0.999084,-0.010071,0.041382,-0.000427,0.000000,0.003906,-0.019531
21212702000,0.999084,-0.010010,0.041382,-0.000366,0.000000,0.003906,-0.019531
21234989000,0.999084,-0.010071,0.041382,-0.000427,0.000000,0.003906,-0.019531
21250548000,0.999084,-0.010071,0.041382,-0.000366,0.000000,0.003906,0.019531
21269917000,0.999084,-0.010071,0.041382,-0.000366,0.000000,0.003906,-0.019531
21290000000,0.999084,-0.010071,0.041382,-0.000366,0.000000,0.003906,0.019531
21309909000,0.999084,-0.010071,0.041382,-0.000366,-0.007812,0.003906,0.019531
21330682000,0.999084,-0.010071,0.041382,-0.000366,-0.007812,0.003906,0.019531
21349603000,0.999084,-0.010071,0.041382,-0.000366,-0.007812,0.003906,-0.019531
21370172000,0.999084,-0.010132,0.041382,-0.000366,-0.007812,0.003906,-0.019531
21390173000,0.999084,-0.010132,0.041382,-0.000366,-0.007812,0.003906,-0.019531
21409830000,0.999084,-0.010132,0.041382,-0.000366,-0.007812,0.003906,0.019531
21429811000,0.999084,-0.010132,0.041382,-0.000366,-0.007812,0.003906,-0.019531
21449401000,0.999084,-0.010132,0.041382,-0.000366,0.000000,0.003906,-0.019531
21469582000,0.999084,-0.010193,0.041382,-0.000366,0.039062,0.003906,-0.019531
21489491000,0.999084,-0.010193,0.041382,-0.000366,-0.007812,0.003906,0.019531
21509295000,0.999084,-0.010193,0.041382,-0.000366,-0.007812,0.011719,0.019531
21529876000,0.999084,-0.010193,0.041382,-0.000366,0.000000,0.011719,0.019531
21549564000,0.999084,-0.010193,0.041382,-0.000366,0.000000,0.011719,-0.019531
21569214000,0.999084,-0.010193,0.041382,-0.000366,0.000000,0.011719,0.019531
21589628000,0.999084,-0.010132,0.041382,-0.000366,0.031250,0.011719,-0.019531
21618609000,0.999084,-0.010132,0.041443,-0.000366,-0.007812,0.003906,0.019531
21635644000,0.999084,-0.010132,0.041443,-0.000366,-0.007812,0.003906,0.019531
21649181000,0.999084,-0.010132,0.041382,-0.000366,-0.007812,0.003906,0.019531
21669369000,0.999084,-0.010132,0.041382,-0.000366,-0.007812,0.003906,-0.019531
21689016000,0.999084,-0.010132,0.041382,-0.000366,0.031250,0.003906,-0.019531
21718556000,0.999084,-0.010071,0.041382,-0.000366,-0.007812,0.003906,-0.019531
21732942000,0.999084,-0.010071,0.041443,-0.000305,-0.007812,0.003906,0.019531
21748481000,0.999084,-0.010071,0.041443,-0.000366,0.031250,0.003906,0.019531
21769225000,0.999084,-0.010071,0.041443,-0.000366,0.031250,0.003906,0.019531
21790732000,0.999084,-0.010071,0.041443,-0.000366,-0.007812,0.003906,0.011719
21809032000,0.999084,-0.010071,0.041443,-0.000366,-0.007812,0.003906,-0.027344
21828418000,0.999084,-0.010071,0.041443,-0.000366,-0.007812,0.003906,0.011719
21848502000,0.999084,-0.010071,0.041382,-0.000305,-0.007812,0.003906,0.011719
21868126000,0.999084,-0.010071,0.041382,-0.000305,-0.007812,0.003906,0.011719
21888430000,0.999084,-0.010071,0.041382,-0.000305,-0.007812,0.003906,0.011719
21914685000,0.999084,-0.010071,0.041382,-0.000305,0.031250,0.003906,0.011719
21928015000,0.999084,-0.010071,0.041382,-0.000305,0.031250,0.003906,0.050781
21948124000,0.999084,-0.010132,0.041382,-0.000305,-0.007812,0.003906,0.011719
21973027000,0.999084,-0.010071,0.041382,-0.000366,-0.007812,0.003906,0.011719
21987715000,0.999084,-0.010132,0.041382,-0.000305,-0.007812,0.003906,-0.027344
22008062000,0.999084,-0.010132,0.041382,-0.000305,-0.007812,0.003906,-0.027344
22032713000,0.999084,-0.010132,0.041382,-0.000305,-0.007812,0.003906,-0.027344
22047588000,0.999084,-0.010132,0.041382,-0.000305,-0.007812,0.003906,0.011719
22067493000,0.999084,-0.010132,0.041382,-0.000305,-0.007812,0.003906,0.011719
22087368000,0.999084,-0.010132,0.041382,-0.000305,-0.007812,0.003906,0.011719
22113841000,0.999084,-0.010132,0.041382,-0.000305,0.031250,0.003906,0.011719
22127373000,0.999084,-0.010132,0.041382,-0.000305,-0.007812,0.003906,0.011719
22148381000,0.999084,-0.010132,0.041382,-0.000305,-0.007812,0.003906,-0.027344
22177408000,0.999084,-0.010132,0.041382,-0.000305,-0.007812,0.003906,0.019531
22189419000,0.999084,-0.010132,0.041382,-0.000305,-0.007812,0.003906,0.019531
22206879000,0.999084,-0.010132,0.041382,-0.000305,-0.007812,0.003906,-0.019531
22227240000,0.999084,-0.010132,0.041382,-0.000305,-0.007812,0.003906,0.019531
22247600000,0.999084,-0.010132,0.041382,-0.000305,-0.007812,0.003906,-0.019531
22272187000,0.999084,-0.010132,0.041382,-0.000305,-0.007812,0.003906,-0.019531
22286878000,0.999084,-0.010132,0.041382,-0.000305,-0.007812,0.003906,-0.019531
22307122000,0.999084,-0.010132,0.041382,-0.000305,-0.007812,0.003906,-0.019531
22331726000,0.999084,-0.010132,0.041382,-0.000305,-0.007812,0.003906,-0.019531
22346732000,0.999084,-0.010132,0.041382,-0.000305,0.000000,0.003906,-0.019531
22366802000,0.999084,-0.010132,0.041382,-0.000305,-0.039062,0.003906,0.019531
22386561000,0.999084,-0.010132,0.041382,-0.000305,0.039062,0.003906,0.019531
22412131000,0.999084,-0.010132,0.041382,-0.000305,0.000000,0.003906,0.058594
22426309000,0.999084,-0.010132,0.041382,-0.000305,0.000000,0.003906,0.019531
22447271000,0.999084,-0.010132,0.041382,-0.000305,0.039062,0.003906,0.019531
22478321000,0.999084,-0.010132,0.041382,-0.000305,0.039062,0.003906,0.019531
22486315000,0.999084,-0.010132,0.041382,-0.000305,0.000000,0.003906,-0.019531
22506340000,0.999084,-0.010132,0.041382,-0.000305,0.000000,0.003906,0.019531
22526998000,0.999084,-0.010132,0.041382,-0.000305,-0.007812,0.003906,-0.019531
22546375000,0.999084,-0.010132,0.041382,-0.000305,-0.007812,0.003906,0.019531
22572103000,0.999084,-0.010132,0.041382,-0.000305,-0.007812,0.003906,-0.019531
22586486000,0.999084,-0.010132,0.041382,-0.000305,-0.007812,0.003906,-0.019531
22606332000,0.999084,-0.010132,0.041382,-0.000305,-0.007812,0.003906,-0.019531
22627419000,0.999084,-0.010132,0.041382,-0.000305,-0.007812,0.003906,0.019531
22656349000,0.999084,-0.010132,0.041382,-0.000305,-0.007812,0.003906,0.019531
22665878000,0.999084,-0.010132,0.041382,-0.000305,-0.007812,0.003906,-0.019531
22685831000,0.999084,-0.010132,0.041382,-0.000305,-0.007812,0.003906,0.019531
22716055000,0.999084,-0.010132,0.041382,-0.000305,-0.007812,0.003906,0.019531
22725695000,0.999084,-0.010132,0.041382,-0.000305,0.031250,0.003906,-0.019531
22745999000,0.999084,-0.010132,0.041382,-0.000305,-0.007812,0.003906,-0.019531
22766048000,0.999084,-0.010132,0.041382,-0.000305,0.031250,0.003906,0.019531
22791012000,0.999084,-0.010132,0.041382,-0.000305,-0.007812,0.003906,0.019531
22805444000,0.999084,-0.010132,0.041382,-0.000305,-0.007812,0.003906,-0.019531
22825750000,0.999084,-0.010132,0.041382,-0.000305,-0.007812,0.003906,0.019531
22845605000,0.999084,-0.010132,0.041382,-0.000305,-0.007812,0.003906,0.019531
22875110000,0.999084,-0.010132,0.041382,-0.000305,-0.007812,0.003906,0.019531
22885225000,0.999084,-0.010132,0.041382,-0.000305,-0.046875,0.003906,-0.019531
22905596000,0.999084,-0.010132,0.041382,-0.000305,-0.007812,0.003906,0.019531
22925435000,0.999084,-0.010132,0.041382,-0.000305,-0.007812,0.003906,0.019531
22950438000,0.999084,-0.010132,0.041382,-0.000305,-0.007812,0.003906,-0.027344
22964921000,0.999084,-0.010132,0.041382,-0.000305,-0.007812,0.003906,0.011719
22984990000,0.999084,-0.010132,0.041382,-0.000305,0.000000,0.003906,0.011719
23005776000,0.999084,-0.010132,0.041382,-0.000305,0.000000,0.003906,0.011719
23029274000,0.999084,-0.010132,0.041382,-0.000305,0.039062,0.003906,-0.027344
23044958000,0.999084,-0.010132,0.041382,-0.000366,0.000000,0.003906,-0.027344
23065245000,0.999084,-0.010132,0.041382,-0.000366,0.000000,0.003906,0.011719
23094973000,0.999084,-0.010071,0.041382,-0.000366,0.000000,0.003906,-0.027344
23109869000,0.999084,-0.010071,0.041382,-0.000366,-0.007812,0.003906,-0.027344
23125558000,0.999084,-0.010132,0.041382,-0.000305,-0.007812,0.003906,0.011719
23144818000,0.999084,-0.010132,0.041443,-0.000305,-0.007812,0.003906,0.011719
23165347000,0.999084,-0.010132,0.041443,-0.000305,0.031250,0.003906,-0.027344
23184757000,0.999084,-0.010132,0.041443,-0.000305,-0.007812,0.003906,0.011719
23205144000,0.999084,-0.010132,0.041443,-0.000305,0.000000,0.003906,0.050781
23234373000,0.999084,-0.010132,0.041443,-0.000305,0.000000,0.003906,-0.027344
23250194000,0.999084,-0.010132,0.041443,-0.000305,0.000000,0.003906,0.011719
23264381000,0.999084,-0.010132,0.041443,-0.000305,0.000000,0.003906,-0.027344
23284413000,0.999084,-0.010071,0.041443,-0.000305,0.000000,0.003906,0.011719
23314382000,0.999084,-0.010071,0.041443,-0.000305,0.000000,0.003906,0.011719
23328863000,0.999084,-0.010071,0.041504,-0.000305,0.000000,0.003906,0.011719
23344988000,0.999084,-0.010132,0.041443,-0.000305,0.000000,0.003906,0.011719
23364383000,0.999084,-0.010132,0.041443,-0.000305,0.039062,0.003906,-0.019531
23384811000,0.999084,-0.010071,0.041443,-0.000305,0.000000,0.003906,-0.019531
23413775000,0.999084,-0.010071,0.041443,-0.000305,0.000000,0.042969,0.019531
23424679000,0.999084,-0.010071,0.041443,-0.000305,0.000000,0.003906,0.019531
23445963000,0.999084,-0.010071,0.041443,-0.000305,-0.007812,0.003906,0.019531
23464516000,0.999084,-0.010071,0.041443,-0.000305,-0.007812,0.003906,-0.019531
23494463000,0.999084,-0.010010,0.041443,-0.000305,-0.007812,0.003906,0.019531
23504403000,0.999084,-0.010071,0.041443,-0.000305,-0.007812,0.003906,0.019531
23524056000,0.999084,-0.010071,0.041443,-0.000305,-0.007812,0.003906,-0.019531
23553457000,0.999084,-0.010010,0.041443,-0.000305,-0.007812,0.042969,0.019531
23563717000,0.999084,-0.010071,0.041443,-0.000305,-0.007812,0.003906,0.019531
23584406000,0.999084,-0.010071,0.041443,-0.000244,-0.015625,0.003906,0.019531
23613444000,0.999084,-0.010010,0.041443,-0.000244,-0.015625,0.003906,0.019531
23623508000,0.999084,-0.010010,0.041443,-0.000244,-0.015625,0.003906,0.019531
23644457000,0.999084,-0.010010,0.041443,-0.000244,-0.007812,0.003906,0.019531
23663830000,0.999084,-0.010010,0.041443,-0.000305,-0.015625,0.003906,-0.019531
23683910000,0.999084,-0.010010,0.041443,-0.000305,-0.007812,0.003906,-0.027344
23712990000,0.999084,-0.010010,0.041443,-0.000305,-0.007812,0.003906,-0.019531
23723486000,0.999084,-0.010010,0.041443,-0.000305,-0.007812,0.003906,-0.019531
23743802000,0.999084,-0.010010,0.041443,-0.000305,-0.007812,0.003906,-0.019531
23763828000,0.999084,-0.010010,0.041443,-0.000244,-0.007812,0.003906,-0.019531
23783805000,0.999084,-0.010010,0.041443,-0.000244,-0.007812,0.003906,0.019531
23812701000,0.999084,-0.010010,0.041443,-0.000244,0.000000,0.042969,0.019531
23823023000,0.999084,-0.010010,0.041443,-0.000244,0.000000,0.003906,-0.019531
23843772000,0.999084,-0.010010,0.041443,-0.000244,-0.007812,0.003906,-0.019531
23873230000,0.999084,-0.010071,0.041443,-0.000244,-0.046875,0.003906,0.019531
23883250000,0.999084,-0.010010,0.041443,-0.000244,0.031250,0.003906,0.019531
23903422000,0.999084,-0.010010,0.041443,-0.000244,0.000000,0.003906,-0.019531
23923811000,0.999084,-0.010010,0.041443,-0.000244,0.039062,0.003906,0.019531
23952497000,0.999084,-0.010010,0.041443,-0.000244,-0.007812,0.003906,-0.019531
23962406000,0.999084,-0.010010,0.041443,-0.000244,-0.007812,0.003906,0.019531
23992577000,0.999084,-0.009949,0.041443,-0.000244,-0.046875,0.003906,0.019531
24002219000,0.999084,-0.009949,0.041443,-0.000244,-0.007812,-0.035156,0.019531
24023442000,0.999084,-0.009949,0.041443,-0.000244,0.031250,0.042969,0.019531
24052460000,0.999084,-0.009949,0.041443,-0.000244,0.000000,0.003906,-0.019531
24062419000,0.999084,-0.009949,0.041504,-0.000244,0.000000,0.003906,0.019531
24083507000,0.999084,-0.009949,0.041504,-0.000244,0.000000,-0.035156,0.019531
24112039000,0.999084,-0.009949,0.041504,-0.000244,0.000000,0.003906,0.019531
24126767000,0.999084,-0.009949,0.041504,-0.000244,0.000000,0.003906,0.019531
24143301000,0.999084,-0.009949,0.041504,-0.000244,0.000000,0.003906,0.019531
24172277000,0.999084,-0.009949,0.041504,-0.000244,0.000000,0.003906,-0.019531
24183088000,0.999084,-0.009949,0.041504,-0.000244,0.000000,0.003906,0.019531
24203111000,0.999084,-0.009949,0.041504,-0.000244,0.039062,0.042969,-0.019531
24231770000,0.999084,-0.009949,0.041504,-0.000244,0.000000,0.003906,0.019531
24242184000,0.999084,-0.009949,0.041504,-0.000244,0.000000,0.003906,0.019531
24276456000,0.999084,-0.009949,0.041504,-0.000244,0.000000,0.003906,0.019531
24293360000,0.999084,-0.009949,0.041504,-0.000244,0.000000,0.003906,0.011719
24311139000,0.999084,-0.009949,0.041504,-0.000244,0.000000,0.003906,0.011719
24322171000,0.999084,-0.009949,0.041504,-0.000244,0.000000,0.003906,0.011719
24350965000,0.999084,-0.009949,0.041504,-0.000244,0.000000,0.003906,0.011719
24371638000,0.999084,-0.009949,0.041504,-0.000244,0.000000,0.003906,0.011719
24391303000,0.999084,-0.009949,0.041504,-0.000244,0.000000,0.003906,0.011719
24402174000,0.999084,-0.009949,0.041504,-0.000244,0.000000,0.003906,0.050781
24431220000,0.999084,-0.009949,0.041504,-0.000244,0.000000,0.003906,0.011719
24442178000,0.999084,-0.009949,0.041504,-0.000244,0.000000,0.003906,-0.027344
24471168000,0.999084,-0.009949,0.041504,-0.000244,0.039062,0.003906,0.011719
24486685000,0.999084,-0.009949,0.041504,-0.000244,0.000000,0.042969,0.011719
24516759000,0.999084,-0.009949,0.041504,-0.000244,0.000000,0.003906,0.011719
24530632000,0.999084,-0.009949,0.041504,-0.000244,-0.007812,0.003906,-0.027344
24552041000,0.999084,-0.009949,0.041504,-0.000244,-0.007812,0.003906,-0.019531
24573709000,0.999084,-0.009949,0.041504,-0.000244,-0.007812,0.003906,-0.019531
24590677000,0.999084,-0.009949,0.041504,-0.000244,-0.007812,0.003906,0.019531
24610901000,0.999084,-0.009949,0.041504,-0.000244,-0.007812,0.003906,0.019531
24630428000,0.999084,-0.009949,0.041504,-0.000244,-0.007812,0.003906,0.019531
24656606000,0.999084,-0.009949,0.041504,-0.000244,-0.007812,0.003906,-0.019531
24671078000,0.999084,-0.009949,0.041504,-0.000244,-0.007812,0.003906,0.019531
24695420000,0.999084,-0.009949,0.041504,-0.000244,-0.007812,0.003906,0.019531
24710390000,0.999084,-0.009949,0.041504,-0.000244,-0.007812,0.003906,0.019531
24730523000,0.999084,-0.009949,0.041504,-0.000244,-0.007812,0.003906,0.019531
24750205000,0.999084,-0.009949,0.041504,-0.000244,-0.007812,0.003906,0.019531
24770233000,0.999084,-0.009949,0.041504,-0.000244,-0.007812,0.003906,0.019531
24790746000,0.999084,-0.009949,0.041504,-0.000244,-0.007812,0.003906,-0.019531
24811380000,0.999084,-0.009949,0.041504,-0.000244,-0.007812,0.003906,0.019531
24829996000,0.999084,-0.009949,0.041504,-0.000244,-0.007812,0.003906,-0.019531
24853781000,0.999084,-0.009949,0.041504,-0.000244,-0.007812,0.003906,0.019531
24869897000,0.999084,-0.009949,0.041504,-0.000244,-0.007812,0.003906,-0.019531
24889820000,0.999084,-0.009949,0.041504,-0.000244,-0.007812,0.003906,-0.019531
24910388000,0.999084,-0.009949,0.041504,-0.000244,-0.007812,0.003906,0.019531
24929845000,0.999084,-0.009949,0.041504,-0.000244,-0.007812,0.003906,0.019531
24949461000,0.999084,-0.009949,0.041504,-0.000244,-0.007812,0.003906,-0.019531
24972314000,0.999084,-0.009949,0.041504,-0.000244,-0.007812,0.003906,-0.019531
24989560000,0.999084,-0.009949,0.041504,-0.000244,-0.007812,0.003906,0.019531
25009882000,0.999084,-0.009949,0.041504,-0.000244,-0.007812,0.003906,0.019531
25029264000,0.999084,-0.009949,0.041504,-0.000244,-0.007812,0.003906,0.058594
25049194000,0.999084,-0.009949,0.041504,-0.000244,0.031250,0.003906,0.019531
25071309000,0.999084,-0.009949,0.041504,-0.000244,-0.007812,0.003906,0.019531
25089072000,0.999084,-0.009949,0.041504,-0.000244,-0.007812,0.003906,0.019531
25109707000,0.999084,-0.009949,0.041504,-0.000244,-0.007812,0.003906,0.019531
25133343000,0.999084,-0.009949,0.041504,-0.000244,0.000000,0.003906,0.019531
25150007000,0.999084,-0.009949,0.041504,-0.000244,0.039062,0.003906,0.019531
25168735000,0.999084,-0.009949,0.041504,-0.000244,0.000000,0.003906,0.019531
25195123000,0.999084,-0.009949,0.041504,-0.000244,0.000000,0.003906,-0.019531
25208821000,0.999084,-0.009949,0.041504,-0.000244,0.000000,0.003906,0.019531
25229240000,0.999084,-0.009949,0.041504,-0.000244,0.000000,0.003906,-0.019531
25248754000,0.999084,-0.009949,0.041504,-0.000244,0.031250,0.003906,0.019531
25268843000,0.999084,-0.009949,0.041504,-0.000244,-0.007812,0.003906,0.019531
25299351000,0.999084,-0.009949,0.041504,-0.000244,-0.007812,0.003906,-0.019531
25309129000,0.999084,-0.009949,0.041504,-0.000244,-0.007812,0.003906,-0.019531
25330751000,0.999084,-0.009949,0.041504,-0.000244,-0.007812,0.003906,0.019531
25348543000,0.999084,-0.009949,0.041504,-0.000244,-0.007812,0.042969,0.019531
25369226000,0.999084,-0.009949,0.041504,-0.000244,0.031250,0.003906,0.019531
25388239000,0.999084,-0.009949,0.041504,-0.000244,0.031250,0.003906,-0.019531
25408239000,0.999084,-0.009949,0.041504,-0.000244,-0.007812,0.042969,-0.019531
25428723000,0.999084,-0.009949,0.041504,-0.000244,-0.007812,0.003906,0.019531
25451703000,0.999084,-0.009949,0.041504,-0.000244,-0.007812,0.003906,0.019531
25468685000,0.999084,-0.009949,0.041504,-0.000244,-0.007812,0.003906,0.019531
25488122000,0.999084,-0.009949,0.041504,-0.000244,0.070312,0.003906,0.019531
25508139000,0.999084,-0.009949,0.041443,-0.000183,0.941406,0.003906,0.132812
25538333000,0.999084,-0.010071,0.041260,-0.000183,0.621094,0.042969,-0.019531
25548687000,0.999084,-0.010437,0.040955,-0.000244,0.878906,-0.109375,-0.171875
25568166000,0.999146,-0.011414,0.040039,-0.000610,0.988281,0.089844,-0.136719
25587948000,0.999146,-0.012878,0.038635,-0.001282,0.429688,1.500000,-1.207031
25618586000,0.999207,-0.013062,0.038391,-0.001648,0.597656,-0.363281,-2.050781
25627944000,0.999207,-0.013123,0.038269,-0.001770,-0.171875,0.027344,0.171875
25648102000,0.999207,-0.013489,0.037964,-0.002136,-0.253906,-0.164062,0.058594
25668032000,0.999207,-0.013550,0.037842,-0.002930,-0.875000,-0.039062,-0.171875
25687528000,0.999207,-0.013733,0.037537,-0.003052,-0.339844,-0.078125,0.019531
25707518000,0.999207,-0.013916,0.037354,-0.002869,-0.230469,-0.195312,-0.250000
25737985000,0.999207,-0.014038,0.037109,-0.002441,0.210938,0.042969,-0.210938
25748135000,0.999207,-0.014282,0.036926,-0.002319,0.136719,-0.187500,0.093750
25767287000,0.999207,-0.014465,0.036743,-0.002258,0.097656,0.464844,-0.019531
25788131000,0.999207,-0.014587,0.036438,-0.002441,0.242188,-0.101562,-0.066406
25808684000,0.999207,-0.014893,0.036194,-0.002380,0.203125,-0.140625,0.394531
25833323000,0.999268,-0.015076,0.035889,-0.002380,0.273438,0.175781,-0.066406
25847272000,0.999268,-0.015381,0.035461,-0.002319,0.113281,0.097656,0.050781
25867292000,0.999268,-0.015625,0.035095,-0.002136,-0.164062,0.257812,-0.257812
25897968000,0.999268,-0.015930,0.034607,-0.002075,-0.441406,0.343750,-0.179688
25907506000,0.999268,-0.016113,0.034485,-0.002014,-0.332031,-0.191406,-0.027344
25927750000,0.999268,-0.016235,0.034058,-0.002014,-0.332031,0.007812,0.050781
25946725000,0.999268,-0.016418,0.033875,-0.001953,-0.195312,-0.070312,0.355469
25971711000,0.999329,-0.016418,0.033569,-0.002014,-0.195312,-0.175781,0.011719
25986761000,0.999329,-0.016663,0.033386,-0.001892,-0.089844,-0.140625,-0.027344
26006489000,0.999329,-0.016785,0.033203,-0.001892,0.132812,0.128906,-0.257812
26027006000,0.999329,-0.016846,0.033020,-0.001892,-0.171875,0.175781,0.125000
26050154000,0.999329,-0.017029,0.032837,-0.001892,-0.132812,-0.015625,0.203125
26066390000,0.999329,-0.017273,0.032715,-0.001892,-0.105469,-0.015625,-0.144531
26087044000,0.999329,-0.017090,0.032471,-0.001953,-0.218750,0.031250,-0.371094
26108183000,0.999329,-0.017090,0.032349,-0.002075,-0.226562,0.097656,-0.144531
26136495000,0.999329,-0.017151,0.032104,-0.002136,-0.074219,-0.132812,-0.027344
26146200000,0.999329,-0.017151,0.032043,-0.002197,0.035156,-0.132812,0.125000
26166785000,0.999329,-0.017151,0.031799,-0.002258,-0.082031,-0.054688,0.050781
26186755000,0.999329,-0.017334,0.031616,-0.002197,-0.011719,0.023438,0.050781
26210636000,0.999329,-0.017456,0.031433,-0.002197,0.027344,-0.046875,0.050781
26226594000,0.999329,-0.017517,0.031311,-0.002197,0.027344,0.031250,0.050781
26246135000,0.999329,-0.017517,0.031189,-0.002258,-0.136719,-0.125000,-0.105469
26266264000,0.999390,-0.017578,0.031006,-0.002136,-0.097656,-0.085938,-0.027344
26286799000,0.999390,-0.017761,0.030884,-0.001953,-0.328125,0.074219,0.011719
26316575000,0.999390,-0.017822,0.030579,-0.001831,-0.027344,0.039062,-0.179688
26325694000,0.999390,-0.017883,0.030518,-0.001770,-0.105469,-0.039062,0.011719
26345806000,0.999390,-0.017822,0.030334,-0.001587,-0.570312,0.000000,0.011719
26365581000,0.999390,-0.017639,0.030090,-0.001465,-0.304688,0.000000,-0.066406
26387011000,0.999390,-0.017639,0.029907,-0.001343,-0.312500,0.039062,-0.144531
26413730000,0.999390,-0.017639,0.029785,-0.001282,-0.503906,0.113281,-0.066406
26426041000,0.999390,-0.017700,0.029785,-0.001282,-0.117188,0.031250,0.035156
26445559000,0.999390,-0.017700,0.029785,-0.001282,-0.191406,0.031250,-0.003906
26465737000,0.999390,-0.017700,0.029785,-0.001282,0.160156,-0.007812,-0.003906
26485412000,0.999390,-0.017700,0.029785,-0.001282,0.121094,-0.007812,-0.003906
26517245000,0.999390,-0.017700,0.029785,-0.001282,0.113281,-0.007812,-0.003906
26525357000,0.999390,-0.017700,0.029785,-0.001282,0.105469,-0.046875,0.035156
26545417000,0.999390,-0.017700,0.029785,-0.001282,0.105469,-0.007812,0.035156
26576409000,0.999390,-0.017761,0.029785,-0.001282,0.089844,-0.007812,-0.035156
26585430000,0.999390,-0.017761,0.029785,-0.001282,0.128906,-0.007812,-0.003906
26605188000,0.999390,-0.017761,0.029785,-0.001282,0.082031,-0.007812,0.003906
26626509000,0.999390,-0.017700,0.029785,-0.001282,0.074219,-0.007812,0.003906
26650130000,0.999390,-0.017700,0.029724,-0.001282,0.144531,0.000000,0.003906
26665130000,0.999390,-0.017700,0.029663,-0.001160,0.511719,-0.039062,0.003906
26694870000,0.999390,-0.017639,0.029358,-0.000916,0.226562,0.074219,0.042969
26708739000,0.999390,-0.017578,0.029297,-0.000671,0.226562,-0.117188,0.078125
26725520000,0.999390,-0.017700,0.029114,-0.000305,0.289062,0.074219,0.003906
26745168000,0.999451,-0.017822,0.028992,-0.000122,-0.058594,0.000000,-0.035156
26774839000,0.999451,-0.017944,0.028870,-0.000061,-0.218750,0.113281,0.042969
26789208000,0.999451,-0.017883,0.028809,-0.000122,-0.140625,-0.039062,-0.074219
26804861000,0.999451,-0.017944,0.028748,-0.000061,-0.187500,0.046875,-0.074219
26835022000,0.999451,-0.018005,0.028625,-0.000061,-0.042969,0.000000,0.042969
26854757000,0.999451,-0.018066,0.028625,-0.000061,-0.082031,0.007812,0.003906
26864657000,0.999451,-0.018005,0.028564,-0.000061,-0.195312,-0.031250,0.003906
26894394000,0.999451,-0.018005,0.028564,-0.000061,0.027344,0.000000,0.003906
26904458000,0.999451,-0.018005,0.028564,-0.000061,0.066406,0.000000,0.003906
26928943000,0.999451,-0.018066,0.028564,-0.000061,0.066406,0.000000,0.003906
26944498000,0.999451,-0.018005,0.028564,-0.000061,0.066406,-0.031250,0.042969
26963964000,0.999451,-0.018066,0.028564,-0.000061,0.027344,0.007812,-0.035156
26984806000,0.999451,-0.018066,0.028564,-0.000061,0.066406,-0.031250,0.042969
27004913000,0.999451,-0.018066,0.028564,-0.000061,0.027344,0.007812,0.003906
27031818000,0.999451,-0.018066,0.028564,-0.000061,0.019531,0.007812,0.042969
27044134000,0.999451,-0.018066,0.028564,-0.000122,0.019531,0.007812,0.003906
27064652000,0.999451,-0.018005,0.028564,-0.000122,0.019531,0.007812,0.003906
27093845000,0.999451,-0.018005,0.028564,-0.000122,0.058594,0.007812,0.003906
27104082000,0.999451,-0.018005,0.028564,-0.000122,0.019531,0.007812,-0.035156
27124604000,0.999451,-0.018005,0.028564,-0.000122,0.019531,0.007812,0.003906
27150259000,0.999451,-0.018005,0.028564,-0.000122,0.035156,0.039062,0.011719
27164181000,0.999451,-0.018005,0.028564,-0.000122,0.035156,0.000000,0.011719
27184412000,0.999451,-0.018005,0.028564,-0.000122,0.035156,0.000000,0.011719
27214314000,0.999451,-0.018005,0.028564,-0.000122,0.027344,-0.039062,0.011719
27223970000,0.999451,-0.018066,0.028503,-0.000122,0.027344,0.000000,0.011719
27244149000,0.999451,-0.018066,0.028564,-0.000122,0.027344,0.000000,0.011719
27264485000,0.999451,-0.018066,0.028564,-0.000122,0.027344,0.000000,0.011719
27294757000,0.999451,-0.018066,0.028503,-0.000122,0.019531,0.000000,-0.027344
27303937000,0.999451,-0.018066,0.028503,-0.000122,0.058594,0.000000,0.011719
27323947000,0.999451,-0.018066,0.028564,-0.000122,0.019531,0.039062,0.050781
27343881000,0.999451,-0.018066,0.028503,-0.000122,0.019531,0.000000,0.011719
27373443000,0.999451,-0.018127,0.028564,-0.000183,0.011719,0.000000,-0.027344
27383249000,0.999451,-0.018127,0.028564,-0.000122,0.050781,0.000000,0.011719
27403839000,0.999451,-0.018127,0.028564,-0.000122,0.011719,0.000000,0.050781
27433589000,0.999451,-0.018127,0.028503,-0.000122,0.011719,0.000000,0.011719
27448982000,0.999451,-0.018127,0.028503,-0.000122,0.050781,0.000000,0.011719
27463753000,0.999451,-0.018127,0.028503,-0.000122,0.003906,0.000000,0.011719
27483802000,0.999451,-0.018127,0.028503,-0.000122,0.003906,0.000000,0.011719
27503801000,0.999451,-0.018127,0.028503,-0.000122,0.003906,0.000000,0.050781
27523801000,0.999451,-0.018127,0.028564,-0.000122,0.042969,0.000000,0.011719
27553691000,0.999451,-0.018127,0.028564,-0.000122,0.003906,0.000000,-0.027344
27562805000,0.999451,-0.018127,0.028564,-0.000122,0.003906,0.000000,0.050781
27583862000,0.999451,-0.018127,0.028564,-0.000122,0.042969,0.000000,0.011719
27603448000,0.999451,-0.018127,0.028564,-0.000122,0.003906,0.000000,-0.035156
27633474000,0.999451,-0.018127,0.028564,-0.000183,-0.003906,0.000000,0.003906
27644223000,0.999451,-0.018127,0.028564,-0.000183,0.035156,0.000000,0.042969
27663485000,0.999451,-0.018127,0.028564,-0.000183,-0.003906,0.000000,-0.035156
27692568000,0.999451,-0.018127,0.028564,-0.000183,-0.003906,0.000000,0.003906
27708992000,0.999451,-0.018127,0.028564,-0.000183,0.035156,0.000000,0.042969
27723059000,0.999451,-0.018127,0.028503,-0.000183,-0.003906,0.000000,0.003906
27744834000,0.999451,-0.018127,0.028564,-0.000183,-0.003906,0.000000,0.003906
27763468000,0.999451,-0.018127,0.028564,-0.000183,0.035156,0.000000,0.003906
27783073000,0.999451,-0.018127,0.028564,-0.000183,-0.003906,0.000000,0.003906
27803478000,0.999451,-0.018127,0.028564,-0.000183,0.035156,0.000000,0.003906
27823581000,0.999451,-0.018127,0.028564,-0.000183,-0.003906,0.000000,0.003906
27843071000,0.999451,-0.018127,0.028564,-0.000183,0.035156,0.000000,-0.035156
27863447000,0.999451,-0.018127,0.028564,-0.000183,-0.003906,0.000000,0.003906
27883430000,0.999451,-0.018127,0.028564,-0.000183,-0.042969,0.000000,0.003906
27912004000,0.999451,-0.018188,0.028564,-0.000183,0.035156,0.000000,0.003906
27922206000,0.999451,-0.018188,0.028564,-0.000183,0.035156,0.000000,0.003906
27943472000,0.999451,-0.018127,0.028564,-0.000183,-0.003906,0.000000,0.003906
27963633000,0.999451,-0.018188,0.028564,-0.000183,-0.003906,0.000000,0.003906
27991593000,0.999451,-0.018188,0.028564,-0.000183,-0.003906,0.000000,0.003906
28002166000,0.999451,-0.018127,0.028564,-0.000122,-0.003906,0.000000,0.003906
28031428000,0.999451,-0.018127,0.028564,-0.000183,-0.003906,0.000000,0.003906
28054040000,0.999451,-0.018188,0.028564,-0.000183,-0.003906,0.000000,0.003906
28072285000,0.999451,-0.018127,0.028564,-0.000183,0.035156,0.000000,0.003906
28082187000,0.999451,-0.018127,0.028564,-0.000183,0.035156,0.000000,0.003906
28111773000,0.999451,-0.018127,0.028564,-0.000183,-0.003906,0.000000,0.003906
28131405000,0.999451,-0.018127,0.028564,-0.000183,0.035156,0.000000,0.003906
28151708000,0.999451,-0.018127,0.028564,-0.000183,-0.003906,0.000000,0.003906
28177684000,0.999451,-0.018127,0.028564,-0.000183,-0.003906,0.000000,0.003906
28191381000,0.999451,-0.018127,0.028564,-0.000183,-0.003906,0.000000,0.003906
28211347000,0.999451,-0.018127,0.028564,-0.000183,0.035156,0.000000,0.003906
28231426000,0.999451,-0.018066,0.028564,-0.000183,0.035156,0.000000,0.003906
28253206000,0.999451,-0.018066,0.028564,-0.000183,0.035156,0.000000,0.003906
28271405000,0.999451,-0.018066,0.028564,-0.000183,0.035156,0.000000,0.003906
28290457000,0.999451,-0.018066,0.028564,-0.000183,-0.011719,0.000000,0.003906
28312296000,0.999451,-0.018066,0.028564,-0.000183,-0.011719,0.000000,0.003906
28333271000,0.999451,-0.018066,0.028564,-0.000183,-0.011719,0.039062,0.003906
28350594000,0.999451,-0.018066,0.028564,-0.000183,-0.011719,0.000000,0.003906
28370830000,0.999451,-0.018066,0.028564,-0.000183,-0.003906,0.000000,0.003906
28394200000,0.999451,-0.018066,0.028564,-0.000183,-0.003906,0.000000,0.003906
28411043000,0.999451,-0.018066,0.028564,-0.000183,-0.003906,-0.039062,0.003906
28430414000,0.999451,-0.018066,0.028564,-0.000183,-0.003906,0.000000,0.003906
28451152000,0.999451,-0.018066,0.028564,-0.000183,-0.003906,0.000000,0.003906
28480035000,0.999451,-0.018066,0.028564,-0.000183,0.035156,0.000000,0.003906
28495653000,0.999451,-0.018066,0.028564,-0.000183,-0.003906,0.000000,0.003906
28509955000,0.999451,-0.018066,0.028564,-0.000183,-0.003906,0.000000,0.003906
28530315000,0.999451,-0.018066,0.028564,-0.000183,0.035156,0.000000,0.003906
28549969000,0.999451,-0.018066,0.028564,-0.000183,-0.003906,0.000000,0.003906
28573340000,0.999451,-0.018066,0.028564,-0.000183,-0.003906,0.039062,0.003906
28590953000,0.999451,-0.018066,0.028564,-0.000183,-0.003906,0.000000,0.003906
28610139000,0.999451,-0.018066,0.028564,-0.000183,0.035156,0.000000,0.042969
28629640000,0.999451,-0.018066,0.028564,-0.000183,-0.003906,-0.039062,0.003906
28649778000,0.999451,-0.018066,0.028564,-0.000183,-0.003906,0.000000,0.003906
28675970000,0.999451,-0.018066,0.028564,-0.000183,0.035156,0.000000,0.003906
28689924000,0.999451,-0.018066,0.028564,-0.000183,0.035156,0.000000,0.003906
28712177000,0.999451,-0.018066,0.028564,-0.000183,-0.003906,0.000000,0.003906
28729895000,0.999451,-0.018066,0.028564,-0.000183,-0.003906,0.000000,0.003906
28749912000,0.999451,-0.018066,0.028564,-0.000183,-0.003906,0.000000,0.003906
28769935000,0.999451,-0.018066,0.028564,-0.000183,0.035156,0.000000,0.003906
28789699000,0.999451,-0.018066,0.028564,-0.000183,-0.003906,0.000000,0.003906
28809569000,0.999451,-0.018066,0.028564,-0.000183,-0.003906,0.000000,0.042969
28830147000,0.999451,-0.018066,0.028564,-0.000183,-0.003906,0.000000,0.003906
28850620000,0.999451,-0.018066,0.028564,-0.000183,-0.003906,0.000000,0.003906
28872823000,0.999451,-0.018066,0.028564,-0.000183,0.035156,0.000000,0.003906
28889459000,0.999451,-0.018066,0.028564,-0.000183,-0.003906,0.000000,0.003906
28909190000,0.999451,-0.018066,0.028564,-0.000183,0.035156,0.000000,0.003906
28929196000,0.999451,-0.018066,0.028564,-0.000183,-0.003906,0.000000,0.003906
28952570000,0.999451,-0.018066,0.028564,-0.000183,-0.003906,-0.039062,0.003906
28968847000,0.999451,-0.018066,0.028564,-0.000183,-0.003906,0.000000,0.003906
28988720000,0.999451,-0.018066,0.028564,-0.000183,0.035156,0.000000,0.003906
29009632000,0.999451,-0.018066,0.028564,-0.000183,-0.003906,0.000000,0.003906
29029088000,0.999451,-0.018066,0.028564,-0.000183,0.035156,0.000000,0.003906
29048633000,0.999451,-0.018066,0.028564,-0.000183,-0.003906,0.000000,0.042969
29069211000,0.999451,-0.018066,0.028564,-0.000183,0.035156,0.000000,0.003906
29093610000,0.999451,-0.018066,0.028564,-0.000183,-0.003906,0.000000,0.003906
29109584000,0.999451,-0.018066,0.028564,-0.000183,-0.003906,0.000000,0.003906
29128711000,0.999451,-0.018066,0.028564,-0.000183,-0.003906,0.000000,-0.035156
29148718000,0.999451,-0.018066,0.028564,-0.000183,-0.003906,0.000000,0.003906
29173491000,0.999451,-0.018066,0.028564,-0.000183,-0.003906,0.000000,0.003906
29188415000,0.999451,-0.018066,0.028564,-0.000183,-0.003906,0.000000,0.003906
29208452000,0.999451,-0.018066,0.028564,-0.000183,-0.003906,0.000000,-0.035156
29227910000,0.999451,-0.018066,0.028564,-0.000183,-0.003906,0.000000,0.003906
29252800000,0.999451,-0.018066,0.028564,-0.000183,-0.003906,0.000000,0.003906
29268324000,0.999451,-0.018066,0.028564,-0.000183,0.035156,0.000000,-0.035156
29287493000,0.999451,-0.018066,0.028564,-0.000183,-0.003906,0.000000,0.003906
29312574000,0.999451,-0.018066,0.028564,-0.000183,-0.003906,0.000000,0.011719
29327603000,0.999451,-0.018066,0.028564,-0.000183,-0.003906,0.000000,0.050781
29347598000,0.999451,-0.018066,0.028564,-0.000183,0.035156,0.000000,0.011719
29368748000,0.999451,-0.018066,0.028564,-0.000183,-0.003906,0.000000,0.011719
29397882000,0.999451,-0.018066,0.028564,-0.000183,-0.003906,0.000000,0.011719
29407505000,0.999451,-0.018066,0.028564,-0.000183,-0.003906,0.000000,0.011719
29428076000,0.999451,-0.018066,0.028564,-0.000183,-0.003906,0.000000,0.011719
29447365000,0.999451,-0.018066,0.028564,-0.000183,-0.003906,0.000000,0.011719
29467768000,0.999451,-0.018066,0.028564,-0.000183,-0.003906,0.000000,0.011719
29492986000,0.999451,-0.018066,0.028564,-0.000183,0.035156,0.000000,0.003906
29507629000,0.999451,-0.018066,0.028564,-0.000183,-0.003906,0.000000,0.003906
29527140000,0.999451,-0.018066,0.028564,-0.000183,-0.003906,0.000000,0.042969
29547364000,0.999451,-0.018066,0.028564,-0.000183,0.035156,0.000000,0.003906
29577356000,0.999451,-0.018066,0.028564,-0.000183,0.035156,0.000000,0.003906
29594547000,0.999451,-0.018066,0.028564,-0.000183,-0.003906,0.000000,0.042969
29606840000,0.999451,-0.018066,0.028564,-0.000183,-0.003906,0.000000,0.003906
29628101000,0.999451,-0.018066,0.028564,-0.000183,-0.011719,0.000000,0.003906
29648142000,0.999451,-0.018066,0.028564,-0.000183,0.027344,-0.039062,0.042969
29670871000,0.999451,-0.018066,0.028564,-0.000183,-0.011719,-0.039062,0.003906
29687580000,0.999451,-0.018066,0.028564,-0.000183,-0.011719,0.000000,0.042969
29706831000,0.999451,-0.018066,0.028564,-0.000183,0.027344,-0.031250,0.003906
29727190000,0.999451,-0.018066,0.028564,-0.000183,0.027344,0.007812,0.003906
29756806000,0.999451,-0.018066,0.028564,-0.000183,-0.011719,0.007812,0.003906
29772048000,0.999451,-0.018066,0.028564,-0.000183,-0.003906,0.007812,0.003906
29786897000,0.999451,-0.018066,0.028564,-0.000183,-0.003906,0.007812,0.042969
29808017000,0.999451,-0.018066,0.028564,-0.000183,-0.003906,0.007812,0.003906
29831726000,0.999451,-0.018066,0.028564,-0.000183,0.035156,0.007812,0.003906
29847281000,0.999451,-0.018066,0.028564,-0.000183,-0.003906,0.007812,0.003906
29866845000,0.999451,-0.018066,0.028564,-0.000183,-0.003906,0.007812,-0.035156
29891085000,0.999451,-0.018066,0.028564,-0.000183,-0.003906,0.007812,0.003906
29906724000,0.999451,-0.018066,0.028564,-0.000183,-0.003906,0.007812,0.003906
29926147000,0.999451,-0.018066,0.028564,-0.000183,0.035156,0.007812,0.003906
29952169000,0.999451,-0.018066,0.028564,-0.000183,-0.003906,0.007812,0.003906
29966254000,0.999451,-0.018066,0.028564,-0.000183,-0.003906,0.007812,0.003906
29986254000,0.999451,-0.018066,0.028564,-0.000183,-0.003906,0.039062,0.003906
30006283000,0.999451,-0.018066,0.028564,-0.000183,-0.003906,0.000000,0.003906
30030050000,0.999451,-0.018066,0.028564,-0.000183,0.339844,0.000000,0.003906
30046126000,0.999451,-0.017944,0.028381,-0.000183,0.890625,-0.191406,-0.074219
30066301000,0.999451,-0.018066,0.028198,-0.000122,0.601562,-0.007812,0.078125
30085716000,0.999451,-0.018005,0.028015,-0.000183,0.371094,0.000000,-0.003906
30111959000,0.999451,-0.018005,0.027710,-0.000244,0.476562,-0.039062,0.109375
30126228000,0.999451,-0.018005,0.027405,-0.000244,0.023438,-0.039062,0.070312
30146476000,0.999451,-0.017822,0.026917,-0.000244,-0.269531,0.007812,-0.003906
30166252000,0.999512,-0.017761,0.026306,-0.000244,-0.406250,-0.070312,-0.003906
30196427000,0.999512,-0.017700,0.025391,-0.000183,-0.722656,-0.031250,-0.003906
30205894000,0.999512,-0.017700,0.025085,-0.000183,-0.652344,0.082031,0.035156
30225407000,0.999573,-0.017639,0.024353,-0.000244,-0.546875,0.007812,-0.160156
30245409000,0.999573,-0.017639,0.023438,-0.000244,-0.492188,0.007812,-0.082031
30275722000,0.999634,-0.017639,0.021118,-0.000305,0.250000,0.007812,-0.351562
30286292000,0.999634,-0.017822,0.019653,-0.000366,0.273438,0.046875,-0.808594
30306152000,0.999756,-0.016479,0.013184,0.000183,0.683594,0.054688,-2.886719
30325745000,0.999756,-0.018616,0.014038,-0.000061,1.648438,1.214844,-7.367188
30354999000,0.999756,-0.018066,0.013123,0.000061,-0.058594,0.046875,-0.664062
30365681000,0.999756,-0.017517,0.012756,0.000122,0.023438,0.429688,1.789062
30384910000,0.999756,-0.017639,0.012817,0.000122,-0.011719,-0.339844,0.371094
30407226000,0.999756,-0.017517,0.012817,0.000061,0.023438,-0.109375,-0.359375
30434824000,0.999756,-0.017578,0.012878,0.000061,-0.203125,0.082031,-0.175781
30445318000,0.999756,-0.017700,0.012878,0.000000,-0.281250,-0.031250,0.246094
30464928000,0.999756,-0.017578,0.012878,-0.000305,-0.167969,0.046875,0.019531
30494591000,0.999756,-0.017578,0.012878,-0.000732,-0.203125,-0.070312,0.246094
30504950000,0.999756,-0.017700,0.012878,-0.000793,-0.320312,0.046875,-0.175781
30524888000,0.999756,-0.017700,0.012878,-0.001099,-0.394531,-0.109375,0.324219
30544933000,0.999756,-0.017395,0.012817,-0.001221,-0.472656,0.007812,0.019531
30565686000,0.999756,-0.017639,0.012939,-0.001282,-0.394531,-0.070312,-0.058594
30594174000,0.999756,-0.017517,0.012817,-0.001282,-0.359375,0.082031,-0.105469
30605235000,0.999756,-0.017517,0.012756,-0.001221,-0.320312,-0.109375,0.125000
30625241000,0.999756,-0.017517,0.012817,-0.000977,-0.128906,-0.070312,-0.257812
30650697000,0.999756,-0.017578,0.012756,-0.000488,-0.167969,-0.144531,-0.144531
30664967000,0.999756,-0.017578,0.012695,-0.000183,-0.320312,0.082031,-0.105469
30684350000,0.999756,-0.017639,0.012817,-0.000366,-0.320312,0.007812,0.164062
30715980000,0.999756,-0.017700,0.012756,-0.000244,-0.242188,-0.183594,-0.144531
30724272000,0.999756,-0.017639,0.012695,-0.000305,-0.386719,0.082031,-0.027344
30745019000,0.999756,-0.017761,0.012756,-0.000366,-0.136719,0.015625,0.078125
30764529000,0.999756,-0.017761,0.012756,-0.000427,-0.367188,0.128906,0.078125
30784748000,0.999756,-0.017761,0.012756,-0.000549,-0.207031,-0.054688,-0.035156
30813937000,0.999756,-0.017761,0.012695,-0.000671,-0.039062,0.023438,-0.113281
30824134000,0.999756,-0.017883,0.012817,-0.000671,0.007812,-0.054688,0.078125
30844436000,0.999756,-0.017822,0.012756,-0.000854,0.093750,-0.054688,-0.074219
30864375000,0.999756,-0.017822,0.012817,-0.000610,0.285156,-0.015625,0.078125
30893774000,0.999756,-0.017822,0.012817,-0.000305,0.046875,0.054688,-0.035156
30906699000,0.999756,-0.017883,0.012817,-0.000244,0.007812,0.359375,0.003906
30924457000,0.999756,-0.017883,0.012817,-0.000244,0.039062,-0.015625,-0.035156
30944322000,0.999756,-0.017883,0.012817,-0.000305,0.152344,0.054688,0.003906
30964053000,0.999756,-0.017822,0.012817,-0.000305,-0.007812,-0.031250,-0.035156
30984073000,0.999756,-0.017761,0.012817,-0.000244,0.070312,0.046875,0.042969
31004166000,0.999756,-0.017700,0.012756,-0.000305,0.101562,0.046875,0.003906
31033953000,0.999756,-0.017700,0.012756,-0.000305,0.390625,-0.031250,0.035156
31043804000,0.999756,-0.017700,0.012817,-0.000305,0.343750,0.007812,0.035156
31063775000,0.999756,-0.017761,0.012817,-0.000366,0.097656,0.046875,0.003906
31083947000,0.999756,-0.017761,0.012817,-0.000366,0.160156,-0.070312,0.042969
31112914000,0.999756,-0.017883,0.012939,-0.000427,-0.085938,-0.039062,0.035156
31126106000,0.999756,-0.017883,0.012878,-0.000427,-0.085938,0.082031,-0.042969
31143874000,0.999756,-0.017883,0.012878,-0.000427,-0.324219,0.007812,-0.042969
31163572000,0.999756,-0.017883,0.012817,-0.000427,-0.390625,0.007812,-0.003906
31183820000,0.999756,-0.017883,0.012817,-0.000427,0.074219,-0.031250,0.035156
31212726000,0.999756,-0.017883,0.012817,-0.000366,0.074219,0.000000,0.035156
31233104000,0.999756,-0.017883,0.012817,-0.000366,0.074219,0.000000,-0.003906
31242411000,0.999756,-0.017883,0.012817,-0.000366,0.074219,0.000000,-0.003906
31263774000,0.999756,-0.017883,0.012817,-0.000366,0.074219,0.000000,-0.003906
31283476000,0.999756,-0.017883,0.012817,-0.000366,0.066406,0.000000,0.035156
31303746000,0.999756,-0.017883,0.012817,-0.000366,0.066406,0.000000,-0.003906
31323422000,0.999756,-0.017883,0.012817,-0.000305,0.058594,0.000000,-0.003906
31343996000,0.999756,-0.017883,0.012817,-0.000305,0.058594,0.000000,-0.003906
31372156000,0.999756,-0.017883,0.012878,-0.000366,0.050781,0.000000,0.035156
31382802000,0.999756,-0.017883,0.012878,-0.000366,0.050781,-0.039062,-0.003906
31403441000,0.999756,-0.017822,0.012878,-0.000305,0.042969,0.000000,-0.003906
31432180000,0.999756,-0.017883,0.012878,-0.000305,0.035156,0.000000,-0.003906
31442227000,0.999756,-0.017883,0.012878,-0.000305,0.035156,0.000000,-0.003906
31463389000,0.999756,-0.017883,0.012878,-0.000305,0.035156,0.000000,-0.003906
31484402000,0.999756,-0.017944,0.012878,-0.000305,0.027344,0.000000,-0.003906
31503095000,0.999756,-0.017944,0.012878,-0.000305,-0.007812,0.000000,0.035156
31533661000,0.999756,-0.017944,0.012878,-0.000305,0.019531,-0.039062,0.035156
31542268000,0.999756,-0.017944,0.012878,-0.000305,0.019531,0.000000,0.035156
31563449000,0.999756,-0.017944,0.012878,-0.000305,0.019531,0.000000,0.035156
31592411000,0.999756,-0.017944,0.012817,-0.000305,0.011719,0.007812,0.035156
31602162000,0.999756,-0.017944,0.012817,-0.000305,0.011719,0.007812,-0.003906
31623367000,0.999756,-0.017883,0.012817,-0.000305,0.011719,-0.031250,-0.003906
31644450000,0.999756,-0.017944,0.012817,-0.000305,0.011719,0.007812,-0.003906
31663113000,0.999756,-0.017883,0.012817,-0.000305,0.011719,0.007812,-0.003906
31683619000,0.999756,-0.017883,0.012817,-0.000305,0.011719,-0.031250,-0.003906
31712000000,0.999756,-0.017944,0.012817,-0.000305,-0.031250,0.046875,-0.003906
31731304000,0.999756,-0.017944,0.012756,-0.000305,0.003906,0.007812,-0.003906
31751433000,0.999756,-0.017944,0.012756,-0.000305,0.003906,-0.031250,0.035156
31762240000,0.999756,-0.017944,0.012756,-0.000366,0.003906,0.007812,0.035156
31791927000,0.999756,-0.017944,0.012756,-0.000366,0.003906,-0.031250,0.035156
31811310000,0.999756,-0.017944,0.012756,-0.000366,0.003906,-0.031250,0.035156
31822290000,0.999756,-0.017944,0.012756,-0.000305,0.003906,0.007812,-0.003906
31856595000,0.999756,-0.017883,0.012756,-0.000305,0.003906,0.007812,0.035156
31862283000,0.999756,-0.017944,0.012756,-0.000305,0.003906,0.007812,-0.003906
31896103000,0.999756,-0.017944,0.012695,-0.000305,0.003906,0.007812,-0.003906
31902275000,0.999756,-0.017944,0.012695,-0.000305,0.003906,-0.031250,0.035156
31931563000,0.999756,-0.017883,0.012695,-0.000305,-0.003906,-0.031250,-0.003906
31951001000,0.999756,-0.017883,0.012695,-0.000305,-0.003906,0.007812,-0.003906
31977009000,0.999756,-0.017883,0.012634,-0.000305,-0.003906,0.007812,0.035156
31990581000,0.999756,-0.017883,0.012634,-0.000305,-0.003906,0.007812,0.035156
32010557000,0.999756,-0.017944,0.012634,-0.000305,-0.003906,-0.031250,0.035156
32027998000,0.999756,-0.017883,0.012634,-0.000305,-0.003906,0.007812,-0.011719
32051107000,0.999756,-0.017883,0.012634,-0.000305,-0.003906,0.007812,-0.011719
32070898000,0.999756,-0.017883,0.012634,-0.000305,-0.003906,0.007812,-0.011719
32091182000,0.999756,-0.017883,0.012634,-0.000366,-0.003906,0.007812,0.027344
32113757000,0.999756,-0.017883,0.012634,-0.000366,-0.003906,-0.031250,0.027344
32130558000,0.999756,-0.017944,0.012634,-0.000366,-0.003906,0.015625,-0.011719
32149802000,0.999756,-0.017944,0.012634,-0.000366,-0.003906,0.015625,-0.011719
32170701000,0.999756,-0.017944,0.012634,-0.000366,-0.039062,-0.023438,-0.011719
32191577000,0.999756,-0.017944,0.012634,-0.000366,-0.003906,0.015625,-0.050781
32215775000,0.999756,-0.017944,0.012634,-0.000366,-0.003906,0.007812,0.027344
32230520000,0.999756,-0.017883,0.012634,-0.000366,-0.039062,0.007812,-0.011719
32252004000,0.999756,-0.017883,0.012634,-0.000305,-0.003906,0.007812,-0.011719
32270162000,0.999756,-0.017883,0.012634,-0.000366,-0.003906,0.007812,-0.011719
32295138000,0.999756,-0.017883,0.012634,-0.000366,-0.003906,-0.031250,0.027344
32309820000,0.999756,-0.017944,0.012573,-0.000366,-0.039062,0.007812,0.027344
32329730000,0.999756,-0.017883,0.012634,-0.000366,-0.003906,0.007812,-0.011719
32356740000,0.999756,-0.017883,0.012634,-0.000366,-0.003906,0.007812,-0.011719
32369803000,0.999756,-0.017883,0.012634,-0.000366,-0.003906,-0.031250,-0.011719
32390407000,0.999756,-0.017883,0.012634,-0.000427,-0.003906,0.007812,0.027344
32415787000,0.999756,-0.017883,0.012634,-0.000427,-0.003906,0.007812,0.027344
32430341000,0.999756,-0.017822,0.012634,-0.000366,-0.039062,0.007812,-0.011719
32449438000,0.999756,-0.017822,0.012634,-0.000427,-0.003906,-0.031250,0.027344
32469593000,0.999756,-0.017822,0.012634,-0.000427,-0.003906,-0.031250,0.027344
32496041000,0.999756,-0.017822,0.012634,-0.000427,-0.039062,-0.031250,-0.011719
32509451000,0.999756,-0.017822,0.012634,-0.000427,-0.003906,0.007812,0.027344
32529641000,0.999756,-0.017822,0.012634,-0.000427,0.035156,0.007812,0.027344
32550055000,0.999756,-0.017822,0.012634,-0.000427,-0.003906,0.007812,-0.011719
32574370000,0.999756,-0.017822,0.012634,-0.000427,-0.003906,0.007812,-0.011719
32589567000,0.999756,-0.017822,0.012634,-0.000427,-0.003906,0.007812,0.027344
32608685000,0.999756,-0.017822,0.012634,-0.000427,-0.003906,0.007812,0.027344
32635305000,0.999756,-0.017822,0.012634,-0.000427,-0.039062,-0.031250,-0.011719
32648724000,0.999756,-0.017822,0.012634,-0.000427,-0.003906,0.007812,0.027344
32668516000,0.999756,-0.017822,0.012634,-0.000427,-0.031250,-0.023438,-0.011719
32699495000,0.999756,-0.017822,0.012634,-0.000427,0.003906,0.015625,-0.011719
32708461000,0.999756,-0.017822,0.012634,-0.000427,0.003906,-0.023438,0.027344
32728595000,0.999756,-0.017822,0.012634,-0.000427,0.003906,0.015625,-0.011719
32749738000,0.999756,-0.017822,0.012634,-0.000427,0.003906,-0.023438,0.027344
32773885000,0.999756,-0.017822,0.012634,-0.000427,0.003906,-0.023438,-0.011719
32788300000,0.999756,-0.017822,0.012634,-0.000427,0.003906,0.015625,-0.011719
32808309000,0.999756,-0.017822,0.012634,-0.000427,0.003906,0.015625,-0.011719
32828292000,0.999756,-0.017822,0.012634,-0.000427,0.003906,0.015625,-0.011719
32850299000,0.999756,-0.017822,0.012634,-0.000427,-0.003906,0.015625,-0.011719
32868419000,0.999756,-0.017822,0.012634,-0.000427,-0.003906,0.015625,0.027344
32888084000,0.999756,-0.017822,0.012634,-0.000427,-0.003906,0.015625,-0.011719
32907906000,0.999756,-0.017822,0.012634,-0.000427,-0.003906,0.015625,-0.011719
32930979000,0.999756,-0.017822,0.012634,-0.000427,-0.003906,0.015625,0.027344
32956253000,0.999756,-0.017822,0.012634,-0.000427,-0.003906,0.015625,-0.011719
32969498000,0.999756,-0.017822,0.012634,-0.000427,-0.003906,0.015625,-0.011719
32998240000,0.999756,-0.017822,0.012634,-0.000427,-0.003906,0.015625,-0.011719
33008308000,0.999756,-0.017822,0.012634,-0.000427,-0.003906,-0.023438,-0.011719
33028288000,0.999756,-0.017822,0.012634,-0.000427,-0.003906,0.015625,0.027344
33051177000,0.999756,-0.017822,0.012634,-0.000427,-0.003906,-0.023438,-0.011719
33067707000,0.999756,-0.017822,0.012634,-0.000427,-0.003906,0.015625,-0.011719
33087413000,0.999756,-0.017822,0.012634,-0.000427,-0.003906,-0.031250,-0.003906
33107722000,0.999756,-0.017822,0.012634,-0.000427,-0.003906,0.007812,0.035156
33131135000,0.999756,-0.017822,0.012634,-0.000427,-0.003906,0.007812,-0.003906
33147439000,0.999756,-0.017822,0.012634,-0.000427,-0.003906,-0.031250,-0.003906
33167279000,0.999756,-0.017822,0.012634,-0.000427,-0.003906,0.007812,0.035156
33187815000,0.999756,-0.017822,0.012634,-0.000427,-0.003906,0.007812,0.035156
33209256000,0.999756,-0.017822,0.012634,-0.000427,-0.003906,0.007812,0.035156
33234125000,0.999756,-0.017822,0.012634,-0.000427,-0.003906,-0.023438,-0.011719
33246985000,0.999756,-0.017822,0.012634,-0.000427,-0.003906,0.015625,-0.011719
33266927000,0.999756,-0.017822,0.012634,-0.000427,-0.003906,0.007812,-0.003906
33288873000,0.999756,-0.017822,0.012634,-0.000427,-0.003906,0.007812,0.035156
33314066000,0.999756,-0.017822,0.012634,-0.000427,-0.003906,0.007812,-0.003906
33326733000,0.999756,-0.017822,0.012634,-0.000427,-0.003906,0.007812,0.070312
33346936000,0.999756,-0.017822,0.012634,-0.000427,-0.003906,0.007812,-0.003906
33367562000,0.999756,-0.017822,0.012634,-0.000427,-0.003906,-0.031250,0.035156
