timestamp_ns,qw,qx,qy,qz,ax,ay,az,t_sec,dist_48e72,dist_83a8d,dist_e05a1
2641239000,0.999084,-0.01001,0.04126,-0.000427,0.0,0.003906,-0.035156,0.0,,,
2660511000,0.999084,-0.01001,0.04126,-0.000427,0.0,-0.027344,-0.035156,0.019272,,,
2670194000,0.999084,-0.01001,0.04126,-0.000427,0.0,0.011719,0.003906,0.028955,,,
2680510000,0.999084,-0.01001,0.041321,-0.000427,0.0,0.011719,0.003906,0.039271,,,
2690779000,0.999084,-0.01001,0.041321,-0.000427,0.0,0.011719,0.003906,0.04954,,,
2700954000,0.999084,-0.01001,0.041321,-0.000427,0.0,-0.027344,-0.035156,0.059715,,,
2710484000,0.999084,-0.01001,0.04126,-0.000427,0.0,0.011719,0.042969,0.069245,,,
2720493000,0.999084,-0.009949,0.04126,-0.000427,0.0,-0.027344,0.003906,0.079254,,,
2730505000,0.999084,-0.009949,0.04126,-0.000427,0.039062,-0.027344,0.003906,0.089266,,,
2740827000,0.999084,-0.009949,0.04126,-0.000427,0.0,0.011719,-0.035156,0.099588,,,
2750111000,0.999084,-0.009949,0.04126,-0.000427,0.0,0.011719,-0.035156,0.108872,,,
2760676000,0.999084,-0.009949,0.041321,-0.000427,0.0,-0.027344,-0.035156,0.119437,,,
2770999000,0.999084,-0.009949,0.041321,-0.000427,0.0,-0.027344,0.003906,0.12976,,,
2789908000,0.999084,-0.009949,0.041321,-0.000427,0.039062,0.011719,0.003906,0.148669,,,
2810485000,0.999084,-0.009949,0.041321,-0.000427,0.0,-0.027344,0.011719,0.169246,,,
2830215000,0.999084,-0.009888,0.041321,-0.000427,0.0,-0.019531,0.003906,0.188976,,,
2850149000,0.999084,-0.009949,0.041321,-0.000427,0.0,0.019531,0.003906,0.20891,,,
2872257000,0.999084,-0.009949,0.041321,-0.000427,0.0,-0.019531,0.003906,0.231018,,,
2890336000,0.999084,-0.009949,0.041321,-0.000427,0.0,-0.019531,0.003906,0.249097,,,
2910318000,0.999084,-0.009949,0.041321,-0.000427,0.0,0.019531,0.003906,0.269079,,,
2931277000,0.999084,-0.009949,0.041321,-0.000427,-0.039062,0.019531,0.003906,0.290038,,,
2954931000,0.999084,-0.009949,0.041321,-0.000488,0.0,0.019531,0.003906,0.313692,,,
2969726000,0.999084,-0.009949,0.041321,-0.000427,0.0,0.019531,0.003906,0.328487,,,
2992705000,0.999084,-0.009949,0.041321,-0.000427,0.0,-0.019531,0.003906,0.351466,,,
3009923000,0.999084,-0.009949,0.04126,-0.000427,0.0,0.019531,0.003906,0.368684,,,
3030504000,0.999084,-0.009949,0.04126,-0.000427,0.0,0.019531,0.003906,0.389265,,,
3049858000,0.999084,-0.009949,0.04126,-0.000427,0.0,-0.019531,0.003906,0.408619,,,
3069912000,0.999084,-0.009949,0.041321,-0.000427,0.0,0.019531,0.003906,0.428673,,,
3089619000,0.999084,-0.009949,0.04126,-0.000366,0.0,0.019531,0.003906,0.44838,,,
3109725000,0.999084,-0.009888,0.04126,-0.000366,0.0,-0.019531,0.003906,0.468486,,,
3129487000,0.999084,-0.009949,0.04126,-0.000427,0.0,0.019531,0.003906,0.488248,,,
3149485000,0.999084,-0.009949,0.04126,-0.000427,0.0,0.019531,0.003906,0.508246,,,
3175394000,0.999084,-0.009949,0.04126,-0.000366,0.0,-0.019531,0.003906,0.534155,,,
3189132000,0.999084,-0.009888,0.04126,-0.000366,0.0,-0.019531,0.042969,0.547893,,,
3209008000,0.999084,-0.009888,0.041321,-0.000366,0.0,0.019531,0.042969,0.567769,,,
3228670000,0.999084,-0.009888,0.04126,-0.000366,0.0,0.019531,0.003906,0.587431,,,
3249489000,0.999084,-0.009949,0.04126,-0.000427,0.0,-0.019531,-0.035156,0.60825,,,
3271128000,0.999084,-0.009888,0.04126,-0.000427,0.0,0.019531,0.003906,0.629889,,,
3289521000,0.999084,-0.009888,0.04126,-0.000427,0.0,0.019531,0.042969,0.648282,,,
3315328000,0.999084,-0.009888,0.04126,-0.000427,0.0,0.019531,0.003906,0.674089,,,
3329208000,0.999084,-0.009888,0.04126,-0.000427,0.039062,-0.019531,0.042969,0.687969,,,
3349203000,0.999084,-0.009888,0.04126,-0.000427,0.0,0.019531,0.003906,0.707964,,,
3368718000,0.999084,-0.009888,0.04126,-0.000366,0.0,0.011719,0.003906,0.727479,,,
3388357000,0.999084,-0.009888,0.04126,-0.000366,0.0,-0.027344,0.003906,0.747118,,,
3408266000,0.999084,-0.009888,0.04126,-0.000366,0.0,0.011719,0.003906,0.767027,,,
3428293000,0.999084,-0.009827,0.04126,-0.000427,0.0,0.011719,0.003906,0.787054,,,
3449380000,0.999084,-0.009827,0.04126,-0.000427,0.0,0.011719,0.003906,0.808141,,,
3469130000,0.999084,-0.009827,0.04126,-0.000427,0.0,0.011719,0.003906,0.827891,,,
3488381000,0.999084,-0.009827,0.04126,-0.000427,0.0,0.011719,0.003906,0.847142,,,
3509049000,0.999084,-0.009827,0.04126,-0.000427,0.0,-0.027344,0.003906,0.86781,,,
3527873000,0.999084,-0.009827,0.04126,-0.000366,-0.039062,0.011719,0.003906,0.886634,,,
3548348000,0.999084,-0.009827,0.041321,-0.000427,0.0,0.011719,0.003906,0.907109,,,
3568062000,0.999084,-0.009827,0.041321,-0.000366,0.0,-0.027344,0.003906,0.926823,,,
3591568000,0.999084,-0.009827,0.041321,-0.000366,0.0,0.011719,0.003906,0.950329,,,
3607719000,0.999084,-0.009827,0.041321,-0.000366,0.0,0.011719,0.003906,0.96648,,,
3627757000,0.999084,-0.009827,0.041321,-0.000366,0.0,0.011719,0.003906,0.986518,,,
3647529000,0.999084,-0.009827,0.041321,-0.000366,0.0,-0.027344,0.003906,1.00629,,,
3672198000,0.999084,-0.009827,0.041321,-0.000366,0.0,0.011719,0.003906,1.030959,,,
3687380000,0.999084,-0.009827,0.041321,-0.000366,0.0,0.011719,0.003906,1.046141,,,
3707935000,0.999084,-0.009827,0.041321,-0.000366,0.0,-0.027344,0.003906,1.066696,,,
3729774000,0.999084,-0.009827,0.041321,-0.000366,0.0,0.011719,0.042969,1.088535,,,
3747346000,0.999084,-0.009827,0.041321,-0.000366,0.0,0.011719,0.003906,1.106107,,,
3767122000,0.999084,-0.009827,0.041321,-0.000366,0.0,-0.027344,0.003906,1.125883,,,
3787518000,0.999084,-0.009827,0.041321,-0.000366,0.0,0.011719,0.003906,1.146279,,,
3810801000,0.999084,-0.009827,0.041321,-0.000366,0.0,0.011719,0.003906,1.169562,,,
3837051000,0.999084,-0.009827,0.041321,-0.000366,0.0,-0.027344,0.003906,1.195812,,,
3847412000,0.999084,-0.009827,0.041321,-0.000366,0.0,-0.027344,0.003906,1.206173,,,
3868475000,0.999084,-0.009827,0.041321,-0.000366,-0.039062,0.011719,0.003906,1.227236,,,
3886818000,0.999084,-0.009827,0.041321,-0.000366,0.0,0.011719,0.042969,1.245579,,,
3907392000,0.999084,-0.009827,0.041321,-0.000366,0.0,-0.027344,-0.035156,1.266153,,,
3927611000,0.999084,-0.009827,0.041321,-0.000366,0.0,0.011719,0.042969,1.286372,,,
3951597000,0.999084,-0.009827,0.041321,-0.000366,0.0,-0.027344,0.003906,1.310358,,,
3966743000,0.999084,-0.009827,0.041321,-0.000366,0.039062,0.011719,0.003906,1.325504,,,
3987925000,0.999084,-0.009827,0.041321,-0.000366,0.0,0.011719,0.003906,1.346686,,,
4006990000,0.999084,-0.009827,0.041321,-0.000366,-0.039062,0.011719,0.003906,1.365751,,,
4028843000,0.999084,-0.009827,0.041321,-0.000366,0.0,-0.027344,0.003906,1.387604,,,
4046378000,0.999084,-0.009827,0.041321,-0.000366,0.0,-0.027344,0.003906,1.405139,,,
4067970000,0.999084,-0.009827,0.041321,-0.000366,0.0,0.011719,0.003906,1.426731,,,
4086709000,0.999084,-0.009827,0.041321,-0.000366,0.0,0.011719,0.003906,1.44547,,,
4107200000,0.999084,-0.009827,0.041321,-0.000366,0.0,0.011719,0.003906,1.465961,,,
4136707000,0.999084,-0.009827,0.041321,-0.000366,0.0,0.011719,0.042969,1.495468,,,
4146502000,0.999084,-0.009827,0.041321,-0.000366,0.0,-0.027344,0.003906,1.505263,,,
4166056000,0.999084,-0.009827,0.041321,-0.000366,0.0,0.011719,0.003906,1.524817,,,
4187823000,0.999084,-0.009827,0.041321,-0.000366,0.0,0.011719,0.003906,1.546584,,,
4212311000,0.999084,-0.009827,0.041321,-0.000366,0.0,-0.027344,0.003906,1.571072,,,
4226690000,0.999084,-0.009827,0.041321,-0.000366,0.039062,0.011719,0.003906,1.585451,,,
4246408000,0.999084,-0.009827,0.041321,-0.000366,-0.039062,0.011719,0.003906,1.605169,,,
4276598000,0.999084,-0.009827,0.041321,-0.000366,0.0,-0.027344,0.003906,1.635359,,,
4286092000,0.999084,-0.009827,0.041321,-0.000366,0.0,0.011719,0.042969,1.644853,,,
4306058000,0.999084,-0.009827,0.041321,-0.000366,0.0,0.011719,0.003906,1.664819,,,
4329133000,0.999084,-0.009827,0.041321,-0.000366,0.0,0.011719,0.003906,1.687894,,,
4345678000,0.999084,-0.009827,0.041321,-0.000366,0.0,-0.027344,0.003906,1.704439,,,
4365764000,0.999084,-0.009827,0.041321,-0.000366,0.039062,0.011719,0.003906,1.724525,,,
4386161000,0.999084,-0.009827,0.041321,-0.000366,0.0,-0.027344,0.003906,1.744922,,,
4405841000,0.999084,-0.009827,0.041321,-0.000366,0.0,0.011719,0.003906,1.764602,,,
4435672000,0.999084,-0.009827,0.041321,-0.000366,0.0,-0.027344,0.003906,1.794433,,,
4445233000,0.999084,-0.009827,0.041321,-0.000366,0.0,0.011719,0.003906,1.803994,,,
4465262000,0.999084,-0.009827,0.041321,-0.000366,0.0,0.011719,0.003906,1.824023,,,
4495272000,0.999084,-0.009827,0.041321,-0.000366,0.0,0.011719,0.003906,1.854033,,,
4515394000,0.999084,-0.009827,0.041321,-0.000366,0.0,0.011719,0.003906,1.874155,,,
4525120000,0.999084,-0.009827,0.041321,-0.000366,-0.039062,-0.027344,0.003906,1.883881,,,
4545377000,0.999084,-0.009827,0.041321,-0.000366,0.0,0.011719,0.003906,1.904138,,,
4565221000,0.999084,-0.009827,0.041321,-0.000366,0.0,0.011719,-0.003906,1.923982,,,
4586172000,0.999084,-0.009827,0.041321,-0.000366,0.0,0.011719,-0.003906,1.944933,,,
4615838000,0.999084,-0.009827,0.041321,-0.000366,0.0,0.011719,-0.003906,1.974599,,,
4624759000,0.999084,-0.009827,0.041321,-0.000366,0.0,0.011719,-0.003906,1.98352,,,
4645235000,0.999084,-0.009827,0.041321,-0.000366,0.0,0.011719,-0.003906,2.003996,,,
4665090000,0.999084,-0.009827,0.041321,-0.000366,0.0,0.011719,0.035156,2.023851,,,
4694948000,0.999084,-0.009827,0.041321,-0.000366,0.0,0.011719,-0.003906,2.053709,,,
4712407000,0.999084,-0.009827,0.041321,-0.000366,0.0,0.011719,-0.003906,2.071168,,,
4724716000,0.999084,-0.009827,0.041321,-0.000366,0.0,0.011719,-0.003906,2.083477,,,
4744814000,0.999084,-0.009827,0.041321,-0.000366,0.0,-0.027344,-0.003906,2.103575,,,
4764964000,0.999084,-0.009827,0.041321,-0.000366,0.0,0.011719,-0.003906,2.123725,,,
4784753000,0.999084,-0.009827,0.041321,-0.000366,0.0,0.011719,-0.003906,2.143514,,,
4814462000,0.999084,-0.009827,0.041321,-0.000366,0.0,-0.027344,-0.003906,2.173223,,,
4824909000,0.999084,-0.009827,0.041321,-0.000366,0.0,0.011719,-0.003906,2.18367,,,
4845963000,0.999084,-0.009827,0.041321,-0.000366,0.0,0.011719,-0.003906,2.204724,,,
4866088000,0.999084,-0.009827,0.041321,-0.000366,0.0,0.011719,-0.003906,2.224849,,,
4889281000,0.999084,-0.009827,0.041321,-0.000366,0.0,0.011719,-0.003906,2.248042,,,
4904892000,0.999084,-0.009827,0.041321,-0.000366,0.0,-0.027344,-0.003906,2.263653,,,
4924450000,0.999084,-0.009827,0.041321,-0.000366,0.0,-0.027344,0.035156,2.283211,,,
4944989000,0.999084,-0.009827,0.041321,-0.000366,-0.039062,0.011719,-0.003906,2.30375,,,
4973986000,0.999084,-0.009827,0.041321,-0.000366,0.0,0.011719,-0.003906,2.332747,,,
4984325000,0.999084,-0.009827,0.041321,-0.000366,0.0,0.011719,-0.003906,2.343086,,,
5004202000,0.999084,-0.009827,0.041321,-0.000366,0.0,0.011719,-0.003906,2.362963,,,
5024230000,0.999084,-0.009827,0.041321,-0.000366,0.0,-0.027344,0.035156,2.382991,,,
5055134000,0.999084,-0.009827,0.041321,-0.000366,0.0,0.011719,-0.003906,2.413895,,,
5064020000,0.999084,-0.009827,0.041321,-0.000366,0.0,0.011719,0.035156,2.422781,,,
5084071000,0.999084,-0.009827,0.041321,-0.000366,0.0,0.011719,-0.003906,2.442832,,,
5109412000,0.999084,-0.009827,0.041321,-0.000366,-0.039062,0.011719,-0.003906,2.468173,,,
5124135000,0.999084,-0.009827,0.041321,-0.000366,-0.039062,-0.027344,-0.003906,2.482896,,,
5144401000,0.999084,-0.009827,0.041321,-0.000366,0.0,0.011719,0.035156,2.503162,,,
5164245000,0.999084,-0.009827,0.041321,-0.000366,0.007812,0.011719,0.035156,2.523006,,,
5184048000,0.999084,-0.009827,0.041321,-0.000366,0.007812,0.011719,-0.003906,2.542809,,,
5204161000,0.999084,-0.009827,0.041321,-0.000366,0.0,-0.027344,-0.003906,2.562922,,,
5233970000,0.999084,-0.009827,0.041321,-0.000366,0.0,0.011719,-0.003906,2.592731,,,
5247633000,0.999084,-0.009827,0.041321,-0.000366,0.0,0.011719,0.035156,2.606394,,,
5263957000,0.999084,-0.009827,0.041321,-0.000366,0.0,0.011719,-0.003906,2.622718,,,
5284013000,0.999084,-0.009827,0.041321,-0.000366,0.0,0.011719,0.035156,2.642774,,,
5303862000,0.999084,-0.009827,0.041321,-0.000366,0.0,0.011719,-0.003906,2.662623,,,
5333663000,0.999084,-0.009827,0.041321,-0.000366,0.0,0.011719,-0.042969,2.692424,,,
5343145000,0.999084,-0.009827,0.041321,-0.000366,0.0,0.011719,0.035156,2.701906,,,
5364466000,0.999084,-0.009827,0.041321,-0.000366,0.0,0.011719,-0.042969,2.723227,,,
5393958000,0.999084,-0.009827,0.041321,-0.000366,0.0,0.011719,-0.003906,2.752719,,,
5402625000,0.999084,-0.009827,0.041321,-0.000366,0.0,0.011719,-0.003906,2.761386,,,
5424751000,0.999084,-0.009827,0.041321,-0.000366,0.0,0.011719,-0.003906,2.783512,,,
5453095000,0.999084,-0.009827,0.041321,-0.000366,0.0,0.011719,-0.003906,2.811856,,,
5463081000,0.999084,-0.009827,0.041321,-0.000366,0.0,0.011719,0.035156,2.821842,,,
5483405000,0.999084,-0.009827,0.041321,-0.000366,0.0,0.011719,0.035156,2.842166,,,
5503666000,0.999084,-0.009827,0.041321,-0.000366,0.0,-0.027344,-0.003906,2.862427,,,
5533158000,0.999084,-0.009827,0.041321,-0.000366,0.0,-0.027344,-0.003906,2.891919,,,
5542606000,0.999084,-0.009827,0.041321,-0.000366,0.0,0.011719,-0.003906,2.901367,,,
5563444000,0.999084,-0.009827,0.041321,-0.000366,0.0,0.011719,-0.003906,2.922205,,,
5592278000,0.999084,-0.009827,0.041321,-0.000366,0.0,-0.027344,-0.003906,2.951039,,,
5602146000,0.999084,-0.009827,0.041321,-0.000366,0.0,0.011719,-0.003906,2.960907,,,
5623758000,0.999084,-0.009827,0.041321,-0.000366,0.0,0.011719,0.035156,2.982519,,,
5644730000,0.999084,-0.009827,0.041321,-0.000366,0.0,0.011719,-0.003906,3.003491,,,
5663019000,0.999084,-0.009827,0.041321,-0.000366,0.039062,0.011719,-0.003906,3.02178,,,
5683494000,0.999084,-0.009827,0.041321,-0.000366,0.0,0.011719,-0.003906,3.042255,,,
5703385000,0.999084,-0.009827,0.041321,-0.000366,0.0,0.011719,-0.003906,3.062146,,,
5732726000,0.999084,-0.009827,0.041321,-0.000366,0.0,0.011719,-0.003906,3.091487,,,
5742168000,0.999084,-0.009827,0.041321,-0.000366,0.0,-0.027344,0.035156,3.100929,,,
5763439000,0.999084,-0.009827,0.041321,-0.000366,0.0,0.011719,-0.003906,3.1222,,,
5783403000,0.999084,-0.009827,0.041321,-0.000366,0.039062,-0.027344,-0.003906,3.142164,,,
5804454000,0.999084,-0.009827,0.041321,-0.000366,0.0,-0.027344,0.035156,3.163215,,,
5823055000,0.999084,-0.009827,0.041321,-0.000366,0.0,0.011719,0.035156,3.181816,,,
5843520000,0.999084,-0.009827,0.041321,-0.000366,0.0,0.011719,0.027344,3.202281,,,
5872137000,0.999084,-0.009827,0.041321,-0.000366,0.0,0.011719,-0.011719,3.230898,,,
5883395000,0.999084,-0.009827,0.041321,-0.000366,0.0,0.011719,0.027344,3.242156,,,
5908283000,0.999084,-0.009827,0.041321,-0.000366,0.039062,0.011719,-0.011719,3.267044,,,
5928107000,0.999084,-0.009827,0.041321,-0.000366,-0.007812,0.011719,-0.011719,3.286868,,,
5952375000,0.999084,-0.009827,0.041321,-0.000366,-0.007812,0.011719,-0.011719,3.311136,,,
5971947000,0.999084,-0.009827,0.041321,-0.000366,-0.007812,0.011719,-0.011719,3.330708,,,
5992014000,0.999084,-0.009827,0.041321,-0.000366,-0.007812,0.011719,-0.011719,3.350775,,,
6011438000,0.999084,-0.009827,0.041321,-0.000366,-0.007812,0.011719,-0.011719,3.370199,,,
6031549000,0.999084,-0.009827,0.041321,-0.000366,-0.007812,0.011719,-0.011719,3.39031,,,
6051467000,0.999084,-0.009827,0.041321,-0.000366,-0.007812,0.011719,-0.003906,3.410228,,,
6076607000,0.999084,-0.009827,0.041321,-0.000366,-0.007812,0.003906,-0.003906,3.435368,,,
6091468000,0.999084,-0.009827,0.041321,-0.000366,0.03125,0.003906,-0.003906,3.450229,,,
6111410000,0.999084,-0.009827,0.041321,-0.000366,-0.007812,0.003906,-0.003906,3.470171,,,
6134468000,0.999084,-0.009827,0.041321,-0.000366,-0.007812,-0.035156,-0.003906,3.493229,,,
6142487000,0.999084,-0.009827,0.041321,-0.000366,-0.007812,0.011719,-0.003906,3.501248,,,
6171002000,0.999084,-0.009827,0.041321,-0.000366,-0.007812,0.011719,-0.003906,3.529763,,,
6190576000,0.999084,-0.009827,0.041321,-0.000366,-0.007812,-0.027344,0.035156,3.549337,,,
6210450000,0.999084,-0.009827,0.041321,-0.000366,-0.007812,0.011719,-0.003906,3.569211,,,
6235340000,0.999084,-0.009827,0.041321,-0.000366,-0.007812,0.011719,-0.003906,3.594101,,,
6250820000,0.999084,-0.009827,0.041321,-0.000366,0.0,0.011719,-0.003906,3.609581,,,
6270519000,0.999084,-0.009827,0.041321,-0.000366,0.0,0.011719,-0.003906,3.62928,,,
6291183000,0.999084,-0.009827,0.041321,-0.000366,0.0,0.011719,-0.003906,3.649944,,,
6310575000,0.999084,-0.009827,0.041321,-0.000366,0.039062,0.011719,-0.003906,3.669336,,,
6330609000,0.999084,-0.009827,0.041321,-0.000366,0.0,0.011719,0.035156,3.68937,,,
6350596000,0.999084,-0.009827,0.041321,-0.000366,0.0,0.011719,-0.003906,3.709357,,,
6370457000,0.999084,-0.009827,0.041321,-0.000366,0.0,0.011719,-0.003906,3.729218,,,
6390710000,0.999084,-0.009827,0.041321,-0.000366,0.0,0.011719,-0.003906,3.749471,,,
6410543000,0.999084,-0.009827,0.041321,-0.000366,0.039062,0.011719,-0.003906,3.769304,,,
6433251000,0.999084,-0.009827,0.041321,-0.000366,0.0,0.011719,0.035156,3.792012,,,
6450602000,0.999084,-0.009827,0.041321,-0.000366,0.0,0.011719,-0.003906,3.809363,,,
6470579000,0.999084,-0.009827,0.041321,-0.000366,0.0,-0.027344,0.035156,3.82934,,,
6490041000,0.999084,-0.009827,0.041321,-0.000366,0.0,0.011719,-0.003906,3.848802,,,
6513001000,0.999084,-0.009827,0.041321,-0.000366,0.0,0.011719,-0.003906,3.871762,,,
6530013000,0.999084,-0.009827,0.041321,-0.000366,0.0,0.003906,-0.003906,3.888774,,,
6549465000,0.999084,-0.009827,0.041321,-0.000366,0.0,0.003906,-0.003906,3.908226,,,
6569517000,0.999084,-0.009827,0.041321,-0.000366,0.0,0.003906,-0.003906,3.928278,,,
6590626000,0.999084,-0.009827,0.041321,-0.000366,0.0,0.003906,-0.003906,3.949387,,,
6609434000,0.999084,-0.009827,0.041321,-0.000366,0.0,0.003906,-0.003906,3.968195,,,
6629887000,0.999084,-0.009827,0.04126,-0.000366,0.0,0.003906,0.035156,3.988648,,,
6653934000,0.999084,-0.009888,0.041321,-0.000366,0.0,0.003906,-0.003906,4.012695,,,
6670240000,0.999084,-0.009888,0.041321,-0.000366,0.0,0.003906,-0.003906,4.029001,,,
6689471000,0.999084,-0.009888,0.04126,-0.000366,0.0,0.003906,-0.003906,4.048232,,,
6712754000,0.999084,-0.009888,0.04126,-0.000427,0.0,-0.035156,0.035156,4.071515,,,
6729812000,0.999084,-0.009888,0.04126,-0.000366,0.0,0.003906,-0.003906,4.088573,,,
6749271000,0.999084,-0.009888,0.041321,-0.000366,0.0,0.003906,-0.003906,4.108032,,,
6769909000,0.999084,-0.009888,0.04126,-0.000366,0.0,0.011719,-0.003906,4.12867,,,
6788962000,0.999084,-0.009949,0.041321,-0.000366,0.0,0.011719,0.035156,4.147723,,,
6808890000,0.999084,-0.009949,0.041321,-0.000366,0.0,0.011719,-0.003906,4.167651,,,
6828905000,0.999084,-0.009949,0.041321,-0.000366,-0.039062,0.011719,-0.042969,4.187666,,,
6856178000,0.999084,-0.009949,0.041321,-0.000366,0.0,0.011719,-0.003906,4.214939,,,
6869219000,0.999084,-0.009949,0.041321,-0.000366,0.0,0.011719,-0.003906,4.22798,,,
6889834000,0.999084,-0.009949,0.041321,-0.000366,0.0,0.011719,-0.003906,4.248595,,,
6908813000,0.999084,-0.009949,0.041321,-0.000366,0.039062,0.011719,-0.003906,4.267574,,,
6929511000,0.999084,-0.009949,0.041321,-0.000366,0.0,0.011719,-0.003906,4.288272,,,
6949263000,0.999084,-0.009949,0.041321,-0.000366,0.0,0.011719,-0.003906,4.308024,,,
6969161000,0.999084,-0.009888,0.041321,-0.000305,0.0,0.011719,-0.003906,4.327922,,,
6989720000,0.999084,-0.009888,0.041321,-0.000305,0.0,-0.027344,-0.003906,4.348481,,,
7009226000,0.999084,-0.009888,0.041321,-0.000305,0.0,0.011719,-0.042969,4.367987,,,
7030637000,0.999084,-0.009888,0.041321,-0.000305,0.0,0.011719,0.035156,4.389398,,,
7055397000,0.999084,-0.009888,0.041321,-0.000305,0.0,0.011719,-0.003906,4.414158,,,
7069193000,0.999084,-0.009888,0.041321,-0.000366,0.0,0.003906,-0.003906,4.427954,,,
7088508000,0.999084,-0.009888,0.041321,-0.000305,0.0,-0.035156,0.035156,4.447269,,,
7108803000,0.999084,-0.009888,0.041321,-0.000305,0.0,0.003906,-0.003906,4.467564,,,
7132989000,0.999084,-0.009888,0.041321,-0.000305,0.0,-0.027344,-0.003906,4.49175,,,
7149084000,0.999084,-0.009888,0.041382,-0.000305,0.0,0.011719,-0.003906,4.507845,,,
7168679000,0.999084,-0.009888,0.041382,-0.000305,0.0,0.011719,-0.003906,4.52744,,,
7189071000,0.999084,-0.009827,0.041382,-0.000305,0.039062,0.011719,-0.003906,4.547832,,,
7211392000,0.999084,-0.009827,0.041382,-0.000305,0.0,0.011719,-0.003906,4.570153,,,
7228586000,0.999084,-0.009827,0.041382,-0.000305,0.0,-0.027344,0.035156,4.587347,,,
7247917000,0.999084,-0.009827,0.041382,-0.000305,0.0,-0.027344,0.035156,4.606678,,,
7270236000,0.999084,-0.009827,0.041382,-0.000305,0.0,0.011719,-0.003906,4.628997,,,
7292270000,0.999084,-0.009827,0.041382,-0.000305,0.0,0.011719,-0.003906,4.651031,,,
7308223000,0.999084,-0.009827,0.041382,-0.000366,0.0,0.011719,0.035156,4.666984,,,
7328065000,0.999084,-0.009827,0.041382,-0.000305,0.0,0.011719,0.035156,4.686826,,,
7351763000,0.999084,-0.009827,0.041382,-0.000305,0.0,0.011719,-0.011719,4.710524,,,
7368457000,0.999084,-0.009827,0.041382,-0.000305,-0.039062,0.011719,-0.011719,4.727218,,,
7387517000,0.999084,-0.009827,0.041382,-0.000305,0.0,0.011719,-0.011719,4.746278,,,
7408341000,0.999084,-0.009827,0.041443,-0.000305,0.0,0.011719,-0.011719,4.767102,,,
7432078000,0.999084,-0.009827,0.041382,-0.000366,0.0,0.003906,-0.011719,4.790839,,,
7447327000,0.999084,-0.009766,0.041382,-0.000366,0.0,0.003906,-0.011719,4.806088,,,
7469537000,0.999084,-0.009766,0.041382,-0.000366,0.0,0.042969,-0.011719,4.828298,,,
7490933000,0.999084,-0.009766,0.041443,-0.000366,0.039062,0.003906,-0.011719,4.849694,,,
7507485000,0.999084,-0.009766,0.041443,-0.000366,0.0,0.003906,0.027344,4.866246,,,
7527241000,0.999084,-0.009827,0.041443,-0.000366,0.007812,0.003906,-0.011719,4.886002,,,
7547825000,0.999084,-0.009766,0.041443,-0.000366,0.007812,0.003906,0.027344,4.906586,,,
7575558000,0.999084,-0.009827,0.041443,-0.000366,0.007812,0.003906,-0.011719,4.934319,,,
7586762000,0.999084,-0.009827,0.041443,-0.000366,0.007812,0.003906,-0.011719,4.945523,,,
7610732000,0.999084,-0.009827,0.041443,-0.000366,0.046875,0.003906,-0.011719,4.969493,,,
7626797000,0.999084,-0.009827,0.041443,-0.000366,-0.03125,0.003906,0.027344,4.985558,,,
7647055000,0.999084,-0.009827,0.041443,-0.000366,0.007812,0.003906,-0.011719,5.005816,,,
7666584000,0.999084,-0.009827,0.041443,-0.000366,0.0,0.003906,-0.011719,5.025345,,,
7691200000,0.999084,-0.009827,0.041443,-0.000366,0.0,0.003906,0.027344,5.049961,,,
7706481000,0.999084,-0.009827,0.041443,-0.000366,0.0,0.003906,-0.011719,5.065242,,,
7726819000,0.999084,-0.009827,0.041443,-0.000366,0.0,-0.035156,-0.011719,5.08558,,,
7746720000,0.999084,-0.009827,0.041443,-0.000366,0.0,0.003906,-0.011719,5.105481,,,
7766389000,0.999084,-0.009827,0.041443,-0.000366,0.0,0.003906,0.027344,5.12515,,,
7787012000,0.999084,-0.009827,0.041443,-0.000366,0.0,0.003906,-0.011719,5.145773,,,
7806727000,0.999084,-0.009827,0.041443,-0.000366,0.0,0.003906,0.027344,5.165488,,,
7826894000,0.999084,-0.009827,0.041443,-0.000366,0.0,0.003906,-0.011719,5.185655,,,
7856676000,0.999084,-0.009827,0.041443,-0.000366,0.0,-0.035156,-0.011719,5.215437,,,
7871724000,0.999084,-0.009827,0.041443,-0.000366,0.0,0.003906,-0.011719,5.230485,,,
7886616000,0.999084,-0.009827,0.041443,-0.000366,0.0,0.003906,0.027344,5.245377,,,
7906257000,0.999084,-0.009827,0.041443,-0.000366,0.0,0.003906,0.027344,5.265018,,,
7926377000,0.999084,-0.009827,0.041443,-0.000366,0.0,0.003906,-0.011719,5.285138,,,
7947222000,0.999084,-0.009827,0.041443,-0.000366,0.0,0.003906,-0.011719,5.305983,,,
7965692000,0.999084,-0.009827,0.041443,-0.000366,0.0,0.003906,0.027344,5.324453,,,
7986103000,0.999084,-0.009827,0.041443,-0.000366,0.0,0.003906,-0.011719,5.344864,,,
8005522000,0.999084,-0.009827,0.041443,-0.000366,0.039062,0.003906,-0.011719,5.364283,,,
8028927000,0.999084,-0.009827,0.041443,-0.000366,0.0,0.003906,-0.011719,5.387688,,,
8045546000,0.999084,-0.009827,0.041443,-0.000366,0.0,0.003906,-0.011719,5.404307,,,
8065354000,0.999084,-0.009827,0.041443,-0.000366,0.0,0.003906,0.027344,5.424115,,,
8095801000,0.999084,-0.009827,0.041443,-0.000366,0.039062,0.003906,0.027344,5.454562,,,
8105438000,0.999084,-0.009827,0.041443,-0.000366,0.0,-0.035156,0.027344,5.464199,,,
8125691000,0.999084,-0.009827,0.041443,-0.000366,0.0,0.003906,-0.011719,5.484452,,,
8145472000,0.999084,-0.009827,0.041443,-0.000366,0.0,0.003906,0.027344,5.504233,,,
8166154000,0.999084,-0.009827,0.041443,-0.000366,0.0,0.003906,0.027344,5.524915,,,
8193195000,0.999084,-0.009827,0.041443,-0.000366,0.0,-0.035156,-0.011719,5.551956,,,
8205492000,0.999084,-0.009827,0.041443,-0.000366,0.0,0.003906,-0.011719,5.564253,,,
8225833000,0.999084,-0.009827,0.041443,-0.000366,0.0,0.011719,0.027344,5.584594,,,
8247061000,0.999084,-0.009827,0.041443,-0.000366,0.0,0.011719,-0.011719,5.605822,,,
8275576000,0.999084,-0.009827,0.041443,-0.000366,0.0,0.011719,0.027344,5.634337,,,
8292400000,0.999084,-0.009827,0.041443,-0.000366,0.0,0.011719,0.027344,5.651161,,,
8305157000,0.999084,-0.009827,0.041443,-0.000366,0.0,0.011719,0.027344,5.663918,,,
8335126000,0.999084,-0.009827,0.041443,-0.000366,0.0,0.011719,0.027344,5.693887,,,
8349453000,0.999084,-0.009827,0.041443,-0.000366,0.0,0.011719,0.027344,5.708214,,,
8364770000,0.999084,-0.009827,0.041443,-0.000366,0.0,0.011719,-0.011719,5.723531,,,
8385391000,0.999084,-0.009827,0.041443,-0.000366,0.0,0.011719,-0.011719,5.744152,,,
8405078000,0.999084,-0.009827,0.041443,-0.000366,0.0,0.011719,0.027344,5.763839,,,
8430695000,0.999084,-0.009827,0.041443,-0.000366,0.0,0.011719,-0.011719,5.789456,,,
8444878000,0.999084,-0.009827,0.041443,-0.000366,0.0,0.011719,-0.011719,5.803639,,,
8465414000,0.999084,-0.009827,0.041443,-0.000366,0.0,0.011719,-0.011719,5.824175,,,
8485253000,0.999084,-0.009827,0.041443,-0.000366,0.0,0.011719,0.027344,5.844014,,,
8514119000,0.999084,-0.009827,0.041443,-0.000366,0.039062,0.011719,0.027344,5.87288,,,
8524498000,0.999084,-0.009827,0.041443,-0.000366,0.0,0.011719,0.027344,5.883259,,,
8544961000,0.999084,-0.009827,0.041443,-0.000366,0.0,0.011719,0.027344,5.903722,,,
8564447000,0.999084,-0.009827,0.041443,-0.000366,0.0,0.003906,-0.011719,5.923208,,,
8584897000,0.999084,-0.009827,0.041443,-0.000366,0.0,0.003906,0.027344,5.943658,,,
8604404000,0.999084,-0.009827,0.041443,-0.000366,0.0,0.003906,0.027344,5.963165,,,
8634269000,0.999084,-0.009827,0.041443,-0.000366,0.0,0.003906,0.027344,5.99303,,,
8644226000,0.999084,-0.009827,0.041443,-0.000366,0.0,0.042969,-0.011719,6.002987,,,
8664421000,0.999084,-0.009827,0.041443,-0.000366,0.0,0.003906,-0.011719,6.023182,,,
8684423000,0.999084,-0.009827,0.041443,-0.000366,0.0,0.003906,-0.011719,6.043184,,,
8713982000,0.999084,-0.009827,0.041443,-0.000366,0.0,0.003906,0.027344,6.072743,,,
8724230000,0.999084,-0.009827,0.041443,-0.000366,0.0,0.003906,-0.011719,6.082991,,,
8744221000,0.999084,-0.009827,0.041443,-0.000366,0.0,-0.035156,-0.011719,6.102982,,,
8764556000,0.999084,-0.009827,0.041443,-0.000366,0.0,0.003906,-0.011719,6.123317,,,
8784516000,0.999084,-0.009827,0.041443,-0.000366,0.039062,0.003906,0.027344,6.143277,,,
8813409000,0.999084,-0.009827,0.041443,-0.000366,0.0,0.003906,0.027344,6.17217,,,
8823663000,0.999084,-0.009827,0.041443,-0.000366,0.0,0.003906,0.027344,6.182424,,,
8844314000,0.999084,-0.009827,0.041443,-0.000366,0.039062,0.003906,0.027344,6.203075,,,
8873950000,0.999084,-0.009827,0.041443,-0.000366,-0.007812,0.003906,0.019531,6.232711,,,
8884004000,0.999084,-0.009827,0.041443,-0.000366,-0.007812,0.003906,-0.019531,6.242765,,,
8913617000,0.999084,-0.009827,0.041443,-0.000366,-0.007812,0.003906,0.019531,6.272378,,,
8923638000,0.999084,-0.009827,0.041443,-0.000366,-0.007812,0.003906,0.019531,6.282399,,,
8944000000,0.999084,-0.009827,0.041443,-0.000366,-0.007812,0.003906,0.019531,6.302761,,,
8964631000,0.999084,-0.009827,0.041443,-0.000366,-0.007812,0.003906,0.019531,6.323392,,,
8989313000,0.999084,-0.009827,0.041443,-0.000366,0.0,-0.035156,-0.019531,6.348074,,,
9003414000,0.999084,-0.009827,0.041443,-0.000366,0.0,0.003906,-0.019531,6.362175,,,
9023816000,0.999084,-0.009827,0.041443,-0.000366,0.0,-0.035156,0.019531,6.382577,,,
9044149000,0.999084,-0.009827,0.041443,-0.000366,0.0,0.003906,-0.019531,6.40291,,,
9072692000,0.999084,-0.009827,0.041443,-0.000366,-0.039062,0.003906,0.019531,6.431453,,,
9083047000,0.999084,-0.009827,0.041443,-0.000366,0.0,0.003906,0.019531,6.441808,,,
9103812000,0.999084,-0.009827,0.041443,-0.000366,0.039062,0.003906,0.019531,6.462573,,,
9123843000,0.999084,-0.009827,0.041443,-0.000366,0.039062,-0.035156,0.019531,6.482604,,,
9144222000,0.999084,-0.009827,0.041443,-0.000366,0.0,-0.035156,0.019531,6.502983,,,
9172473000,0.999084,-0.009827,0.041443,-0.000366,0.0,0.003906,0.019531,6.531234,,,
9183016000,0.999084,-0.009827,0.041443,-0.000366,0.0,0.011719,0.019531,6.541777,,,
9203373000,0.999084,-0.009827,0.041443,-0.000366,0.0,0.011719,0.019531,6.562134,,,
9232753000,0.999084,-0.009827,0.041443,-0.000366,0.0,0.011719,-0.019531,6.591514,,,
9242583000,0.999084,-0.009827,0.041443,-0.000366,0.0,0.011719,-0.019531,6.601344,,,
9263390000,0.999084,-0.009827,0.041443,-0.000366,0.039062,0.011719,0.019531,6.622151,,,
9283689000,0.999084,-0.009827,0.041443,-0.000366,0.0,0.011719,0.019531,6.64245,,,
9310242000,0.999084,-0.009827,0.041443,-0.000366,0.0,0.011719,0.019531,6.669003,,,
9323257000,0.999084,-0.009827,0.041443,-0.000366,0.0,0.011719,-0.019531,6.682018,,,
9343393000,0.999084,-0.009827,0.041443,-0.000366,0.0,0.011719,-0.019531,6.702154,,,
9364772000,0.999084,-0.009827,0.041443,-0.000366,0.0,0.011719,0.019531,6.723533,,,
9383028000,0.999084,-0.009827,0.041443,-0.000366,0.0,0.003906,0.019531,6.741789,,,
9403358000,0.999084,-0.009827,0.041443,-0.000366,0.0,0.003906,-0.019531,6.762119,,,
9423480000,0.999084,-0.009827,0.041443,-0.000366,0.0,-0.035156,0.019531,6.782241,,,
9451497000,0.999084,-0.009827,0.041443,-0.000366,-0.007812,0.003906,-0.019531,6.810258,,,
9462176000,0.999084,-0.009827,0.041443,-0.000366,-0.007812,-0.035156,0.019531,6.820937,,,
9483367000,0.999084,-0.009827,0.041443,-0.000366,-0.007812,0.003906,-0.019531,6.842128,,,
9503434000,0.999084,-0.009827,0.041443,-0.000366,-0.007812,0.003906,0.019531,6.862195,,,
9531277000,0.999084,-0.009827,0.041443,-0.000366,-0.007812,0.003906,-0.019531,6.890038,,,
9542180000,0.999084,-0.009827,0.041443,-0.000366,-0.007812,0.003906,-0.019531,6.900941,,,
9563395000,0.999084,-0.009827,0.041443,-0.000366,-0.007812,0.003906,-0.019531,6.922156,,,
9583432000,0.999084,-0.009827,0.041443,-0.000366,0.0,0.011719,0.019531,6.942193,,,
9611540000,0.999084,-0.009827,0.041443,-0.000366,0.0,-0.027344,-0.011719,6.970301,,,
9628887000,0.999084,-0.009827,0.041443,-0.000366,0.039062,0.011719,-0.011719,6.987648,,,
9643112000,0.999084,-0.009827,0.041443,-0.000366,0.0,0.011719,0.027344,7.001873,,,
9663385000,0.999084,-0.009888,0.041443,-0.000427,0.0,0.011719,0.027344,7.022146,,,
9691545000,0.999084,-0.009888,0.041443,-0.000366,0.0,0.011719,-0.011719,7.050306,,,
9707909000,0.999084,-0.009888,0.041443,-0.000427,0.0,0.011719,-0.011719,7.06667,,,
9731510000,0.999084,-0.009888,0.041443,-0.000427,0.0,-0.027344,0.027344,7.090271,,,
9750941000,0.999084,-0.009888,0.041443,-0.000366,0.0,-0.027344,0.027344,7.109702,,,
9771066000,0.999084,-0.009888,0.041443,-0.000366,0.0,0.011719,-0.011719,7.129827,,,
9782135000,0.999084,-0.009888,0.041443,-0.000366,0.0,0.011719,0.027344,7.140896,,,
9811370000,0.999084,-0.009888,0.041443,-0.000427,0.0,0.011719,0.027344,7.170131,,,
9822460000,0.999084,-0.009888,0.041443,-0.000427,0.0,0.011719,-0.011719,7.181221,,,
9850910000,0.999084,-0.009949,0.041443,-0.000427,0.0,-0.027344,0.019531,7.209671,,,
9870576000,0.999084,-0.009949,0.041443,-0.000427,0.039062,0.011719,0.019531,7.229337,,,
9895032000,0.999084,-0.009888,0.041443,-0.000427,0.0,0.011719,-0.019531,7.253793,,,
9910665000,0.999084,-0.009949,0.041443,-0.000427,0.0,0.011719,0.019531,7.269426,,,
9931356000,0.999084,-0.009949,0.041443,-0.000366,-0.007812,0.011719,0.019531,7.290117,,,
9950592000,0.999084,-0.009949,0.041443,-0.000366,-0.007812,0.011719,0.019531,7.309353,,,
9970475000,0.999084,-0.009888,0.041443,-0.000366,-0.007812,0.011719,0.019531,7.329236,,,
9990335000,0.999084,-0.009888,0.041443,-0.000366,-0.007812,0.011719,0.019531,7.349096,,,
10015119000,0.999084,-0.009888,0.041382,-0.000366,-0.007812,-0.027344,0.019531,7.37388,,,
10031118000,0.999084,-0.009888,0.041382,-0.000366,-0.007812,0.011719,-0.019531,7.389879,,,
10050183000,0.999084,-0.009888,0.041382,-0.000366,-0.007812,0.011719,0.019531,7.408944,,,
10072210000,0.999084,-0.009888,0.041443,-0.000366,-0.007812,0.011719,-0.019531,7.430971,,,
10090596000,0.999084,-0.009827,0.041443,-0.000366,-0.007812,0.011719,-0.019531,7.449357,,,
10110700000,0.999084,-0.009888,0.041443,-0.000366,-0.007812,0.011719,0.019531,7.469461,,,
10131870000,0.999084,-0.009888,0.041443,-0.000366,-0.007812,0.011719,-0.019531,7.490631,,,
10150282000,0.999084,-0.009888,0.041382,-0.000427,0.0,0.003906,0.019531,7.509043,,,
10169789000,0.999084,-0.009888,0.041443,-0.000427,0.0,0.003906,-0.019531,7.52855,,,
10190605000,0.999084,-0.009888,0.041443,-0.000366,0.0,0.003906,0.019531,7.549366,,,
10209687000,0.999084,-0.009949,0.041443,-0.000366,0.039062,0.003906,-0.019531,7.568448,,,
10232759000,0.999084,-0.009949,0.041443,-0.000366,0.007812,0.003906,0.019531,7.59152,,,
10249830000,0.999084,-0.01001,0.041443,-0.000366,0.007812,0.003906,0.019531,7.608591,,,
10269805000,0.999084,-0.01001,0.041443,-0.000366,0.007812,0.003906,0.019531,7.628566,,,
10291345000,0.999084,-0.01001,0.041443,-0.000366,0.046875,0.003906,0.019531,7.650106,,,
10309662000,0.999084,-0.009949,0.041443,-0.000427,0.0,0.003906,-0.019531,7.668423,,,
10330046000,0.999084,-0.01001,0.041443,-0.000427,0.0,0.003906,0.019531,7.688807,,,
10349528000,0.999084,-0.01001,0.041443,-0.000427,-0.007812,0.003906,0.019531,7.708289,,,
10372137000,0.999084,-0.01001,0.041443,-0.000427,-0.007812,0.003906,-0.019531,7.730898,,,
10389249000,0.999084,-0.01001,0.041443,-0.000427,0.0,0.003906,0.019531,7.74801,,,
10409948000,0.999084,-0.01001,0.041443,-0.000366,0.0,0.003906,0.019531,7.768709,,,
10429247000,0.999084,-0.01001,0.041443,-0.000366,-0.007812,0.003906,0.019531,7.788008,,,
10449690000,0.999084,-0.01001,0.041443,-0.000366,0.0,0.003906,0.019531,7.808451,,,
10469008000,0.999084,-0.01001,0.041443,-0.000366,0.0,0.042969,0.019531,7.827769,,,
10492375000,0.999084,-0.01001,0.041443,-0.000366,0.0,0.003906,0.019531,7.851136,,,
10509499000,0.999084,-0.01001,0.041443,-0.000427,0.0,-0.035156,0.019531,7.86826,,,
10529472000,0.999084,-0.01001,0.041443,-0.000427,0.03125,0.003906,0.019531,7.888233,,,
10559075000,0.999084,-0.009949,0.041443,-0.000366,-0.007812,0.003906,0.019531,7.917836,,,
10569282000,0.999084,-0.01001,0.041382,-0.000427,-0.007812,0.003906,0.019531,7.928043,,,
10589020000,0.999084,-0.01001,0.041382,-0.000366,-0.007812,0.003906,-0.019531,7.947781,,,
10608495000,0.999084,-0.01001,0.041382,-0.000366,-0.007812,0.003906,-0.019531,7.967256,,,
10633874000,0.999084,-0.01001,0.041382,-0.000366,-0.007812,0.003906,0.019531,7.992635,,,
10648808000,0.999084,-0.01001,0.041382,-0.000366,-0.007812,-0.035156,0.019531,8.007569,,,
10668745000,0.999084,-0.01001,0.041382,-0.000366,-0.007812,0.003906,-0.019531,8.027506,,,
10689983000,0.999084,-0.01001,0.041382,-0.000366,-0.007812,0.003906,0.019531,8.048744,,,
10708636000,0.999084,-0.01001,0.041382,-0.000366,-0.007812,0.003906,-0.019531,8.067397,,,
10728731000,0.999084,-0.01001,0.041382,-0.000366,-0.007812,0.003906,-0.019531,8.087492,,,
10747819000,0.999084,-0.01001,0.041382,-0.000366,-0.007812,0.003906,0.058594,8.10658,,,
10778782000,0.999084,-0.01001,0.041382,-0.000366,0.0,0.003906,-0.019531,8.137543,,,
10794780000,0.999084,-0.01001,0.041382,-0.000366,0.0,0.003906,0.019531,8.153541,,,
10809941000,0.999084,-0.01001,0.041382,-0.000366,-0.007812,0.003906,0.019531,8.168702,,,
10828164000,0.999084,-0.01001,0.041382,-0.000366,0.03125,0.003906,0.019531,8.186925,,,
10852619000,0.999084,-0.01001,0.041382,-0.000366,-0.007812,0.003906,0.019531,8.21138,,,
10867914000,0.999084,-0.01001,0.041382,-0.000366,-0.007812,0.003906,-0.019531,8.226675,,,
10887801000,0.999084,-0.01001,0.041382,-0.000366,-0.007812,0.003906,0.019531,8.246562,,,
10907817000,0.999084,-0.01001,0.041382,-0.000366,-0.007812,0.003906,0.019531,8.266578,,,
10929307000,0.999084,-0.01001,0.041382,-0.000366,-0.007812,0.003906,-0.019531,8.288068,,,
10947667000,0.999084,-0.01001,0.041382,-0.000366,0.03125,0.003906,0.019531,8.306428,,,
10967984000,0.999084,-0.01001,0.041382,-0.000366,-0.007812,0.003906,0.019531,8.326745,,,
10987353000,0.999084,-0.01001,0.041382,-0.000366,-0.007812,0.003906,0.019531,8.346114,,,
11007306000,0.999084,-0.01001,0.041382,-0.000366,-0.007812,0.003906,-0.019531,8.366067,,,
11027262000,0.999084,-0.01001,0.041382,-0.000366,-0.007812,0.003906,0.019531,8.386023,,,
11048805000,0.999084,-0.01001,0.041382,-0.000366,0.03125,0.003906,0.019531,8.407566,,,
11068425000,0.999084,-0.01001,0.041382,-0.000366,-0.007812,0.003906,-0.019531,8.427186,,,
11087514000,0.999084,-0.01001,0.041382,-0.000366,-0.007812,0.003906,-0.019531,8.446275,,,
11107769000,0.999084,-0.01001,0.041382,-0.000366,-0.007812,0.003906,0.019531,8.46653,,,
11129664000,0.999084,-0.01001,0.041382,-0.000366,-0.007812,0.003906,0.019531,8.488425,,,
11146924000,0.999084,-0.01001,0.041382,-0.000366,-0.007812,0.003906,0.019531,8.505685,,,
11167142000,0.999084,-0.01001,0.041382,-0.000366,0.0,0.003906,0.019531,8.525903,,,
11187254000,0.999084,-0.01001,0.041382,-0.000366,0.0,0.003906,-0.019531,8.546015,,,
11211480000,0.999084,-0.01001,0.041382,-0.000366,0.0,0.003906,0.019531,8.570241,,,
11226748000,0.999084,-0.01001,0.041382,-0.000366,0.0,0.003906,-0.019531,8.585509,,,
11246802000,0.999084,-0.01001,0.041382,-0.000366,0.0,0.003906,-0.019531,8.605563,,,
11267145000,0.999084,-0.01001,0.041382,-0.000366,0.0,0.003906,0.019531,8.625906,,,
11291161000,0.999084,-0.01001,0.041382,-0.000366,-0.007812,0.003906,0.019531,8.649922,,,
11307136000,0.999084,-0.01001,0.041382,-0.000366,-0.007812,0.003906,0.019531,8.665897,,,
11327984000,0.999084,-0.01001,0.041382,-0.000366,-0.007812,0.003906,-0.019531,8.686745,,,
11350226000,0.999084,-0.01001,0.041382,-0.000366,-0.007812,0.003906,0.019531,8.708987,,,
11366467000,0.999084,-0.01001,0.041382,-0.000366,-0.007812,0.003906,-0.019531,8.725228,,,
11386944000,0.999084,-0.01001,0.041382,-0.000366,-0.007812,0.003906,0.019531,8.745705,,,
11406336000,0.999084,-0.01001,0.041382,-0.000366,-0.007812,-0.035156,0.019531,8.765097,,,
11436707000,0.999084,-0.01001,0.041382,-0.000366,-0.007812,0.003906,-0.019531,8.795468,,,
11446404000,0.999084,-0.01001,0.041382,-0.000366,-0.007812,0.003906,0.019531,8.805165,,,
11466667000,0.999084,-0.01001,0.041382,-0.000366,0.0,0.003906,-0.019531,8.825428,,,
11486251000,0.999084,-0.01001,0.041382,-0.000366,0.0,-0.035156,0.019531,8.845012,,,
11512247000,0.999084,-0.01001,0.041382,-0.000366,0.0,0.003906,0.027344,8.871008,,,
11526359000,0.999084,-0.01001,0.041382,-0.000366,0.0,0.003906,-0.011719,8.88512,,,
11545909000,0.999084,-0.01001,0.041382,-0.000366,0.0,0.003906,0.027344,8.90467,,,
11576724000,0.999084,-0.01001,0.041382,-0.000366,0.0,0.003906,0.027344,8.935485,,,
11593360000,0.999084,-0.01001,0.041382,-0.000366,0.0,0.003906,0.027344,8.952121,,,
11605737000,0.999084,-0.01001,0.041382,-0.000366,0.0,0.003906,-0.011719,8.964498,,,
11625883000,0.999084,-0.01001,0.041382,-0.000366,0.039062,0.003906,-0.011719,8.984644,,,
11645628000,0.999084,-0.01001,0.041382,-0.000366,0.0,0.003906,0.027344,9.004389,,,
11665759000,0.999084,-0.01001,0.041382,-0.000366,0.0,0.003906,-0.011719,9.02452,,,
11687196000,0.999084,-0.01001,0.041382,-0.000366,0.0,0.003906,-0.011719,9.045957,,,
11711656000,0.999084,-0.01001,0.041382,-0.000366,0.0,0.003906,-0.011719,9.070417,,,
11725673000,0.999084,-0.01001,0.041382,-0.000366,0.0,0.003906,-0.011719,9.084434,,,
11745460000,0.999084,-0.01001,0.041382,-0.000366,0.0,0.003906,-0.011719,9.104221,,,
11766723000,0.999084,-0.01001,0.041382,-0.000366,0.0,0.003906,0.027344,9.125484,,,
11790987000,0.999084,-0.01001,0.041382,-0.000366,0.0,0.003906,0.027344,9.149748,,,
11805829000,0.999084,-0.01001,0.041382,-0.000366,0.0,0.003906,-0.011719,9.16459,,,
11825614000,0.999084,-0.01001,0.041382,-0.000366,0.0,0.003906,0.027344,9.184375,,,
11846325000,0.999084,-0.01001,0.041382,-0.000366,0.0,0.003906,0.027344,9.205086,,,
11864923000,0.999084,-0.01001,0.041382,-0.000366,0.0,0.003906,-0.011719,9.223684,,,
11886601000,0.999084,-0.01001,0.041382,-0.000366,0.0,0.003906,0.027344,9.245362,,,
11905764000,0.999084,-0.01001,0.041382,-0.000366,0.0,0.003906,-0.011719,9.264525,,,
11925211000,0.999084,-0.01001,0.041382,-0.000366,0.0,0.003906,0.027344,9.283972,,,
11944927000,0.999084,-0.01001,0.041382,-0.000366,0.0,0.003906,0.027344,9.303688,,,
11976365000,0.999084,-0.01001,0.041382,-0.000366,-0.007812,0.003906,0.027344,9.335126,,,
11984672000,0.999084,-0.01001,0.041382,-0.000366,-0.007812,0.003906,0.027344,9.343433,,,
12005100000,0.999084,-0.01001,0.041382,-0.000366,-0.007812,0.003906,0.027344,9.363861,,,
12025371000,0.999084,-0.01001,0.041382,-0.000366,0.0,0.003906,0.019531,9.384132,,,
12054661000,0.999084,-0.01001,0.041382,-0.000366,0.0,0.003906,-0.019531,9.413422,,,
12064839000,0.999084,-0.01001,0.041382,-0.000366,0.0,0.003906,-0.019531,9.4236,,,
12084803000,0.999084,-0.01001,0.041382,-0.000366,-0.039062,0.003906,0.019531,9.443564,,,
12106028000,0.999084,-0.01001,0.041382,-0.000366,0.0,0.003906,-0.058594,9.464789,,,
12124909000,0.999084,-0.01001,0.041382,-0.000366,0.0,0.003906,-0.011719,9.48367,,,
12144775000,0.999084,-0.01001,0.041382,-0.000366,0.0,0.003906,-0.011719,9.503536,,,
12164736000,0.999084,-0.01001,0.041382,-0.000366,0.0,0.003906,0.027344,9.523497,,,
12184890000,0.999084,-0.01001,0.041382,-0.000366,0.0,0.003906,0.027344,9.543651,,,
12215048000,0.999084,-0.01001,0.041382,-0.000366,0.0,-0.035156,-0.011719,9.573809,,,
12224608000,0.999084,-0.01001,0.041382,-0.000366,0.0,0.003906,0.027344,9.583369,,,
12246820000,0.999084,-0.01001,0.041382,-0.000366,0.0,0.003906,0.027344,9.605581,,,
12264205000,0.999084,-0.01001,0.041382,-0.000366,0.0,0.003906,-0.011719,9.622966,,,
12294411000,0.999084,-0.01001,0.041382,-0.000366,0.0,0.003906,-0.011719,9.653172,,,
12304427000,0.999084,-0.01001,0.041382,-0.000366,0.0,-0.035156,-0.011719,9.663188,,,
12324627000,0.999084,-0.01001,0.041382,-0.000366,0.039062,0.003906,0.027344,9.683388,,,
12344573000,0.999084,-0.01001,0.041382,-0.000366,0.0,0.003906,-0.011719,9.703334,,,
12366153000,0.999084,-0.01001,0.041382,-0.000366,0.0,0.003906,-0.011719,9.724914,,,
12391353000,0.999084,-0.01001,0.041382,-0.000366,0.0,0.003906,-0.011719,9.750114,,,
12404051000,0.999084,-0.01001,0.041382,-0.000366,0.0,0.003906,0.027344,9.762812,,,
12424390000,0.999084,-0.01001,0.041382,-0.000366,0.0,0.003906,0.027344,9.783151,,,
12444420000,0.999084,-0.01001,0.041382,-0.000366,0.0,0.003906,0.027344,9.803181,,,
12474485000,0.999084,-0.01001,0.041382,-0.000366,0.0,0.003906,-0.011719,9.833246,,,
12483807000,0.999084,-0.01001,0.041382,-0.000366,0.0,0.003906,-0.011719,9.842568,,,
12504239000,0.999084,-0.01001,0.041382,-0.000366,0.039062,0.003906,-0.011719,9.863,,,
12524258000,0.999084,-0.01001,0.041382,-0.000366,0.0,0.003906,-0.011719,9.883019,,,
12553835000,0.999084,-0.01001,0.041382,-0.000366,0.0,0.003906,-0.011719,9.912596,,,
12563401000,0.999084,-0.01001,0.041382,-0.000366,0.0,0.003906,0.027344,9.922162,,,
12584029000,0.999084,-0.01001,0.041382,-0.000366,0.0,0.003906,0.027344,9.94279,,,
12603939000,0.999084,-0.01001,0.041382,-0.000366,0.0,-0.035156,-0.011719,9.9627,,,
12625795000,0.999084,-0.01001,0.041382,-0.000366,0.0,0.003906,0.027344,9.984556,,,
12648615000,0.999084,-0.01001,0.041382,-0.000366,0.0,0.003906,0.027344,10.007376,,,
12663677000,0.999084,-0.01001,0.041382,-0.000366,0.0,0.003906,0.027344,10.022438,,,
12683785000,0.999084,-0.01001,0.041382,-0.000366,0.0,0.003906,0.019531,10.042546,,,
12713378000,0.999084,-0.01001,0.041382,-0.000366,0.0,0.003906,-0.019531,10.072139,,,
12727709000,0.999084,-0.01001,0.041382,-0.000366,0.0,0.042969,0.019531,10.08647,,,
12743589000,0.999084,-0.01001,0.041382,-0.000366,0.0,0.003906,-0.019531,10.10235,,,
12763905000,0.999084,-0.01001,0.041382,-0.000366,0.039062,0.003906,-0.019531,10.122666,,,
12785084000,0.999084,-0.01001,0.041382,-0.000366,-0.039062,-0.035156,0.019531,10.143845,,,
12803778000,0.999084,-0.01001,0.041382,-0.000366,0.0,0.003906,0.019531,10.162539,,,
12823870000,0.999084,-0.01001,0.041382,-0.000366,0.0,0.003906,0.019531,10.182631,,,
12843427000,0.999084,-0.01001,0.041382,-0.000366,0.039062,0.003906,0.019531,10.202188,,,
12872606000,0.999084,-0.01001,0.041382,-0.000366,0.0,0.003906,-0.019531,10.231367,,,
12883947000,0.999084,-0.01001,0.041382,-0.000366,0.0,0.003906,0.019531,10.242708,,,
12912827000,0.999084,-0.01001,0.041382,-0.000366,0.0,0.003906,0.019531,10.271588,,,
12927041000,0.999084,-0.01001,0.041382,-0.000366,0.0,0.042969,0.019531,10.285802,,,
12943190000,0.999084,-0.01001,0.041382,-0.000366,0.0,0.003906,0.019531,10.301951,,,
12963443000,0.999084,-0.01001,0.041382,-0.000366,0.0,0.003906,0.019531,10.322204,,,
12983982000,0.999084,-0.01001,0.041382,-0.000366,0.0,0.003906,0.019531,10.342743,,,
13012507000,0.999084,-0.01001,0.041382,-0.000366,0.0,0.003906,0.019531,10.371268,,,
13022131000,0.999084,-0.01001,0.041382,-0.000366,0.0,0.003906,0.019531,10.380892,,,
13043420000,0.999084,-0.01001,0.041382,-0.000366,0.0,0.003906,-0.019531,10.402181,,,
13063460000,0.999084,-0.01001,0.041382,-0.000366,0.0,0.003906,0.019531,10.422221,,,
13083463000,0.999084,-0.01001,0.041382,-0.000366,0.0,0.003906,0.019531,10.442224,,,
13112019000,0.999084,-0.01001,0.041382,-0.000366,0.0,0.003906,-0.027344,10.47078,,,
13122085000,0.999084,-0.01001,0.041382,-0.000366,0.0,0.003906,0.011719,10.480846,,,
13143777000,0.999084,-0.01001,0.041382,-0.000366,0.0,0.042969,0.011719,10.502538,,,
13163415000,0.999084,-0.01001,0.041382,-0.000366,0.0,0.003906,0.011719,10.522176,,,
13183427000,0.999084,-0.01001,0.041382,-0.000366,0.039062,0.003906,0.011719,10.542188,,,
13212381000,0.999084,-0.01001,0.041382,-0.000366,0.0,0.003906,0.011719,10.571142,,,
13222114000,0.999084,-0.01001,0.041382,-0.000366,0.0,0.003906,0.011719,10.580875,,,
13243378000,0.999084,-0.01001,0.041382,-0.000366,-0.039062,0.003906,0.011719,10.602139,,,
13271792000,0.999084,-0.01001,0.041382,-0.000366,0.0,0.003906,0.011719,10.630553,,,
13291602000,0.999084,-0.01001,0.041382,-0.000366,0.0,0.003906,0.011719,10.650363,,,
13302124000,0.999084,-0.01001,0.041382,-0.000366,0.0,0.003906,0.011719,10.660885,,,
13334555000,0.999084,-0.01001,0.041382,-0.000366,0.039062,0.003906,0.011719,10.693316,,,
13351391000,0.999084,-0.01001,0.041382,-0.000366,0.039062,0.003906,0.011719,10.710152,,,
13371870000,0.999084,-0.01001,0.041382,-0.000366,0.0,-0.035156,-0.027344,10.730631,,,
13390977000,0.999084,-0.01001,0.041382,-0.000366,0.0,0.003906,-0.027344,10.749738,,,
13402153000,0.999084,-0.01001,0.041382,-0.000366,0.039062,0.003906,-0.027344,10.760914,,,
13431859000,0.999084,-0.01001,0.041382,-0.000366,0.039062,-0.035156,-0.027344,10.79062,,,
13451458000,0.999084,-0.01001,0.041382,-0.000366,-0.007812,0.003906,0.011719,10.810219,,,
13470689000,0.999084,-0.01001,0.041382,-0.000366,-0.007812,0.003906,0.019531,10.82945,,,
13494919000,0.999084,-0.01001,0.041382,-0.000366,-0.007812,0.003906,0.019531,10.85368,,,
13512995000,0.999084,-0.01001,0.041382,-0.000366,-0.007812,0.003906,-0.019531,10.871756,,,
13531042000,0.999084,-0.01001,0.041382,-0.000366,-0.007812,0.003906,0.019531,10.889803,,,
13551283000,0.999084,-0.01001,0.041382,-0.000366,-0.007812,0.003906,0.019531,10.910044,,,
13576586000,0.999084,-0.01001,0.041382,-0.000366,-0.007812,0.003906,-0.019531,10.935347,,,
13590739000,0.999084,-0.01001,0.041382,-0.000366,-0.007812,-0.035156,-0.019531,10.9495,,,
13610735000,0.999084,-0.01001,0.041382,-0.000366,0.03125,0.003906,0.019531,10.969496,,,
13633520000,0.999084,-0.01001,0.041382,-0.000366,-0.007812,0.003906,0.019531,10.992281,,,
13650366000,0.999084,-0.01001,0.041382,-0.000366,0.03125,0.003906,-0.019531,11.009127,,,
13670409000,0.999084,-0.01001,0.041382,-0.000366,-0.007812,0.003906,0.019531,11.02917,,,
13690196000,0.999084,-0.01001,0.041382,-0.000366,-0.007812,0.003906,-0.019531,11.048957,,,
13711901000,0.999084,-0.01001,0.041382,-0.000366,-0.007812,0.003906,-0.019531,11.070662,,,
13730372000,0.999084,-0.01001,0.041382,-0.000366,-0.007812,0.003906,-0.019531,11.089133,,,
13750998000,0.999084,-0.01001,0.041382,-0.000366,-0.007812,0.003906,-0.019531,11.109759,,,
13770085000,0.999084,-0.01001,0.041382,-0.000366,-0.007812,0.003906,0.019531,11.128846,,,
13790240000,0.999084,-0.01001,0.041382,-0.000366,-0.007812,0.003906,-0.019531,11.149001,,,
13816126000,0.999084,-0.01001,0.041382,-0.000366,-0.007812,0.003906,0.019531,11.174887,,,
13830366000,0.999084,-0.01001,0.041382,-0.000366,-0.007812,0.003906,0.019531,11.189127,,,
13850125000,0.999084,-0.01001,0.041382,-0.000366,-0.007812,0.003906,-0.019531,11.208886,,,
13870382000,0.999084,-0.01001,0.041382,-0.000366,-0.007812,0.003906,-0.019531,11.229143,,,
13894720000,0.999084,-0.01001,0.041382,-0.000366,0.039062,0.003906,0.019531,11.253481,,,
13910102000,0.999084,-0.01001,0.041382,-0.000366,0.0,0.003906,-0.011719,11.268863,,,
13930267000,0.999084,-0.01001,0.041382,-0.000366,-0.007812,0.003906,-0.011719,11.289028,,,
13950010000,0.999084,-0.01001,0.041382,-0.000366,-0.007812,0.003906,-0.019531,11.308771,,,
13969456000,0.999084,-0.01001,0.041382,-0.000366,-0.007812,0.003906,0.019531,11.328217,,,
13989366000,0.999084,-0.01001,0.041382,-0.000366,-0.007812,0.003906,0.019531,11.348127,,,
14009379000,0.999084,-0.01001,0.041382,-0.000366,-0.007812,0.003906,0.058594,11.36814,,,
14033321000,0.999084,-0.01001,0.041382,-0.000366,-0.007812,0.003906,0.019531,11.392082,,,
14049633000,0.999084,-0.01001,0.041382,-0.000366,0.03125,0.003906,-0.019531,11.408394,,,
14069223000,0.999084,-0.01001,0.041382,-0.000366,-0.007812,0.003906,-0.019531,11.427984,,,
14089540000,0.999084,-0.01001,0.041382,-0.000366,-0.007812,0.003906,-0.019531,11.448301,,,
14109017000,0.999084,-0.01001,0.041382,-0.000366,0.03125,0.003906,-0.019531,11.467778,,,
14129638000,0.999084,-0.01001,0.041382,-0.000366,-0.007812,0.003906,-0.019531,11.488399,,,
14149114000,0.999084,-0.01001,0.041382,-0.000366,-0.007812,0.003906,0.019531,11.507875,,,
14174909000,0.999084,-0.01001,0.041382,-0.000366,-0.007812,0.003906,0.019531,11.53367,,,
14189168000,0.999084,-0.01001,0.041382,-0.000366,-0.007812,0.003906,-0.019531,11.547929,,,
14209473000,0.999084,-0.01001,0.041382,-0.000366,-0.007812,0.003906,0.019531,11.568234,,,
14239281000,0.999084,-0.01001,0.041382,-0.000366,0.03125,0.003906,0.019531,11.598042,,,
14249087000,0.999084,-0.01001,0.041382,-0.000366,-0.007812,0.003906,0.019531,11.607848,,,
14268549000,0.999084,-0.01001,0.041382,-0.000366,-0.007812,0.003906,0.019531,11.62731,,,
14289056000,0.999084,-0.01001,0.041382,-0.000366,-0.007812,0.003906,-0.019531,11.647817,,,
14308627000,0.999084,-0.01001,0.041382,-0.000366,-0.007812,0.003906,-0.019531,11.667388,,,
14330333000,0.999084,-0.01001,0.041382,-0.000366,-0.007812,-0.035156,-0.019531,11.689094,,,
14349230000,0.999084,-0.01001,0.041382,-0.000366,-0.007812,0.003906,-0.019531,11.707991,,,
14373609000,0.999084,-0.01001,0.041382,-0.000366,-0.007812,0.003906,-0.019531,11.73237,,,
14389349000,0.999084,-0.01001,0.041382,-0.000366,-0.007812,-0.035156,0.019531,11.74811,,,
14408947000,0.999084,-0.01001,0.041382,-0.000366,-0.007812,0.003906,-0.019531,11.767708,,,
14428711000,0.999084,-0.01001,0.041382,-0.000366,-0.007812,0.003906,0.019531,11.787472,,,
14450909000,0.999084,-0.01001,0.041382,-0.000366,0.03125,0.003906,0.019531,11.80967,,,
14468708000,0.999084,-0.01001,0.041382,-0.000366,-0.007812,0.003906,-0.019531,11.827469,,,
14488428000,0.999084,-0.01001,0.041382,-0.000366,-0.007812,0.003906,-0.019531,11.847189,,,
14508680000,0.999084,-0.01001,0.041382,-0.000366,0.03125,0.042969,0.019531,11.867441,,,
14535111000,0.999084,-0.01001,0.041382,-0.000366,-0.007812,0.003906,-0.019531,11.893872,,,
14553318000,0.999084,-0.01001,0.041382,-0.000366,-0.007812,0.003906,0.019531,11.912079,,,
14568564000,0.999084,-0.01001,0.041382,-0.000366,-0.007812,0.003906,-0.019531,11.927325,,,
14587798000,0.999084,-0.01001,0.041382,-0.000366,-0.046875,0.003906,0.019531,11.946559,,,
14612947000,0.999084,-0.01001,0.041382,-0.000366,-0.007812,0.003906,0.019531,11.971708,,,
14627414000,0.999084,-0.01001,0.041382,-0.000366,0.03125,0.003906,-0.019531,11.986175,,,
14647499000,0.999084,-0.01001,0.041382,-0.000366,-0.007812,0.003906,-0.019531,12.00626,,,
14671470000,0.999084,-0.01001,0.041382,-0.000366,-0.007812,0.003906,-0.019531,12.030231,,,
14687672000,0.999084,-0.01001,0.041382,-0.000366,-0.007812,0.003906,-0.019531,12.046433,,,
14707716000,0.999084,-0.01001,0.041382,-0.000366,-0.007812,0.003906,0.019531,12.066477,,,
14728407000,0.999084,-0.01001,0.041382,-0.000366,-0.007812,0.003906,0.019531,12.087168,,,
14750267000,0.999084,-0.01001,0.041382,-0.000366,-0.007812,0.003906,0.019531,12.109028,,,
14767555000,0.999084,-0.01001,0.041382,-0.000366,-0.007812,0.003906,-0.019531,12.126316,,,
14787651000,0.999084,-0.01001,0.041382,-0.000366,-0.007812,0.042969,0.019531,12.146412,,,
14808083000,0.999084,-0.01001,0.041382,-0.000366,-0.007812,0.003906,-0.019531,12.166844,,,
14833346000,0.999084,-0.01001,0.041382,-0.000366,-0.007812,0.003906,0.019531,12.192107,,,
14847521000,0.999084,-0.01001,0.041382,-0.000366,-0.007812,0.003906,-0.019531,12.206282,,,
14867423000,0.999084,-0.01001,0.041382,-0.000366,-0.007812,0.003906,-0.019531,12.226184,,,
14887859000,0.999084,-0.01001,0.041382,-0.000366,-0.007812,0.003906,0.019531,12.24662,,,
14912135000,0.999084,-0.01001,0.041382,-0.000366,-0.007812,0.003906,0.019531,12.270896,,,
14926650000,0.999084,-0.01001,0.041382,-0.000366,0.03125,0.003906,-0.019531,12.285411,,,
14946968000,0.999084,-0.01001,0.041382,-0.000366,0.03125,0.003906,-0.019531,12.305729,,,
14967069000,0.999084,-0.01001,0.041382,-0.000366,-0.007812,0.003906,-0.019531,12.32583,,,
14986803000,0.999084,-0.01001,0.041382,-0.000366,-0.007812,0.003906,-0.019531,12.345564,,,
15006710000,0.999084,-0.01001,0.041382,-0.000366,-0.007812,0.003906,0.019531,12.365471,,,
15027503000,0.999084,-0.01001,0.041382,-0.000366,-0.007812,-0.035156,0.019531,12.386264,,,
15053030000,0.999084,-0.01001,0.041382,-0.000366,-0.007812,0.003906,0.019531,12.411791,,,
15066982000,0.999084,-0.01001,0.041382,-0.000366,-0.007812,0.003906,0.019531,12.425743,,,
15086353000,0.999084,-0.01001,0.041382,-0.000366,-0.007812,0.003906,-0.019531,12.445114,,,
15106609000,0.999084,-0.01001,0.041382,-0.000366,-0.007812,0.003906,-0.019531,12.46537,,,
15128770000,0.999084,-0.01001,0.041382,-0.000366,0.0,0.003906,-0.019531,12.487531,,,
15146815000,0.999084,-0.01001,0.041382,-0.000366,0.039062,0.003906,0.019531,12.505576,,,
15166092000,0.999084,-0.01001,0.041382,-0.000366,0.0,0.003906,-0.019531,12.524853,,,
15186393000,0.999084,-0.01001,0.041382,-0.000366,0.039062,0.003906,0.019531,12.545154,,,
15208906000,0.999084,-0.01001,0.041382,-0.000366,0.0,0.003906,-0.019531,12.567667,,,
15231016000,0.999084,-0.01001,0.041382,-0.000366,0.0,0.003906,0.019531,12.589777,,,
15246178000,0.999084,-0.01001,0.041382,-0.000366,0.0,0.003906,-0.019531,12.604939,,,
15265955000,0.999084,-0.01001,0.041382,-0.000366,0.0,0.003906,-0.019531,12.624716,,,
15287463000,0.999084,-0.01001,0.041382,-0.000366,0.0,0.003906,0.058594,12.646224,,,
15311150000,0.999084,-0.01001,0.041382,-0.000366,0.0,0.003906,0.019531,12.669911,,,
15326191000,0.999084,-0.01001,0.041382,-0.000366,0.0,-0.035156,0.019531,12.684952,,,
15345542000,0.999084,-0.01001,0.041382,-0.000366,0.0,0.003906,-0.019531,12.704303,,,
15372131000,0.999084,-0.01001,0.041382,-0.000366,0.0,0.003906,-0.019531,12.730892,,,
15386210000,0.999084,-0.01001,0.041382,-0.000366,0.0,0.042969,0.019531,12.744971,,,
15405829000,0.999084,-0.01001,0.041382,-0.000366,0.0,-0.035156,0.019531,12.76459,,,
15425976000,0.999084,-0.01001,0.041382,-0.000366,0.0,0.003906,-0.019531,12.784737,,,
15446442000,0.999084,-0.01001,0.041382,-0.000366,0.0,0.003906,-0.027344,12.805203,,,
15471367000,0.999084,-0.01001,0.041382,-0.000366,0.0,0.003906,-0.019531,12.830128,,,
15485412000,0.999084,-0.01001,0.041382,-0.000366,0.0,0.003906,0.019531,12.844173,,,
15505389000,0.999084,-0.01001,0.041382,-0.000366,0.0,0.003906,-0.019531,12.86415,,,
15529548000,0.999084,-0.01001,0.041382,-0.000366,0.0,0.042969,0.019531,12.888309,,,
15545032000,0.999084,-0.01001,0.041382,-0.000366,0.0,0.003906,-0.019531,12.903793,,,
15565556000,0.999084,-0.01001,0.041382,-0.000366,0.0,0.003906,-0.019531,12.924317,,,
15589821000,0.999084,-0.01001,0.041382,-0.000366,0.0,0.003906,0.019531,12.948582,,,
15605022000,0.999084,-0.01001,0.041382,-0.000366,0.0,0.003906,0.019531,12.963783,,,
15628692000,0.999084,-0.01001,0.041382,-0.000366,0.0,0.003906,0.019531,12.987453,,,
15645025000,0.999084,-0.01001,0.041382,-0.000366,0.0,0.003906,0.019531,13.003786,,,
15665726000,0.999084,-0.01001,0.041382,-0.000366,0.0,0.003906,-0.019531,13.024487,,,
15685188000,0.999084,-0.01001,0.041382,-0.000366,0.0,0.003906,0.019531,13.043949,,,
15705626000,0.999084,-0.01001,0.041382,-0.000366,0.039062,0.003906,0.019531,13.064387,,,
15724923000,0.999084,-0.01001,0.041382,-0.000366,0.0,0.003906,0.011719,13.083684,,,
15745458000,0.999084,-0.01001,0.041382,-0.000366,0.0,0.003906,0.011719,13.104219,,,
15775441000,0.999084,-0.01001,0.041382,-0.000366,0.0,0.003906,0.050781,13.134202,,,
15785022000,0.999084,-0.01001,0.041382,-0.000366,0.0,0.003906,-0.027344,13.143783,,,
15805237000,0.999084,-0.01001,0.041382,-0.000366,0.0,0.003906,0.011719,13.163998,,,
15824526000,0.999084,-0.01001,0.041382,-0.000366,0.0,0.003906,-0.027344,13.183287,,,
15844862000,0.999084,-0.01001,0.041382,-0.000366,0.0,-0.035156,-0.027344,13.203623,,,
15864358000,0.999084,-0.01001,0.041382,-0.000366,0.039062,0.003906,-0.027344,13.223119,,,
15885003000,0.999084,-0.01001,0.041382,-0.000366,0.0,0.003906,0.011719,13.243764,,,
15904543000,0.999084,-0.01001,0.041382,-0.000366,0.0,0.003906,0.011719,13.263304,,,
15934833000,0.999084,-0.01001,0.041382,-0.000366,0.03125,0.003906,0.011719,13.293594,,,
15949033000,0.999084,-0.01001,0.041382,-0.000366,-0.007812,0.003906,0.011719,13.307794,,,
15964901000,0.999084,-0.01001,0.041382,-0.000366,-0.007812,0.003906,0.011719,13.323662,,,
15984504000,0.999084,-0.01001,0.041382,-0.000366,0.03125,0.003906,0.011719,13.343265,,,
16004627000,0.999084,-0.01001,0.041382,-0.000366,-0.007812,0.003906,0.011719,13.363388,,,
16024117000,0.999084,-0.01001,0.041382,-0.000366,-0.007812,0.003906,0.011719,13.382878,,,
16044630000,0.999084,-0.01001,0.041382,-0.000366,-0.007812,0.003906,0.011719,13.403391,,,
16064367000,0.999084,-0.01001,0.041382,-0.000366,-0.007812,0.003906,0.011719,13.423128,,,
16084567000,0.999084,-0.01001,0.041382,-0.000366,-0.007812,0.003906,0.011719,13.443328,,,
16104141000,0.999084,-0.01001,0.041382,-0.000366,-0.007812,0.003906,-0.027344,13.462902,,,
16124407000,0.999084,-0.01001,0.041382,-0.000366,-0.007812,-0.035156,-0.027344,13.483168,,,
16145036000,0.999084,-0.01001,0.041382,-0.000366,-0.007812,0.003906,-0.027344,13.503797,,,
16176274000,0.999084,-0.01001,0.041382,-0.000366,-0.007812,-0.035156,0.011719,13.535035,,,
16183697000,0.999084,-0.01001,0.041382,-0.000366,-0.007812,0.003906,0.011719,13.542458,,,
16204544000,0.999084,-0.01001,0.041382,-0.000366,-0.007812,0.003906,0.011719,13.563305,,,
16233307000,0.999084,-0.01001,0.041382,-0.000366,-0.007812,-0.035156,0.050781,13.592068,,,
16243614000,0.999084,-0.01001,0.041382,-0.000366,0.03125,0.003906,0.011719,13.602375,,,
16264006000,0.999084,-0.01001,0.041382,-0.000366,-0.007812,0.003906,-0.027344,13.622767,,,
16284070000,0.999084,-0.01001,0.041382,-0.000366,-0.007812,0.003906,0.011719,13.642831,,,
16312843000,0.999084,-0.01001,0.041382,-0.000366,-0.007812,0.003906,0.011719,13.671604,,,
16323057000,0.999084,-0.01001,0.041382,-0.000366,-0.007812,0.003906,-0.027344,13.681818,,,
16343967000,0.999084,-0.01001,0.041382,-0.000366,0.03125,0.003906,0.011719,13.702728,,,
16364659000,0.999084,-0.01001,0.041382,-0.000366,0.03125,0.003906,0.011719,13.72342,,,
16388870000,0.999084,-0.01001,0.041382,-0.000366,-0.007812,0.003906,-0.027344,13.747631,,,
16403460000,0.999084,-0.01001,0.041382,-0.000366,-0.007812,0.003906,-0.027344,13.762221,,,
16423782000,0.999084,-0.01001,0.041382,-0.000366,0.03125,0.003906,-0.027344,13.782543,,,
16443890000,0.999084,-0.01001,0.041382,-0.000366,-0.007812,0.003906,0.011719,13.802651,,,
16472510000,0.999084,-0.01001,0.041382,-0.000366,-0.007812,0.003906,0.011719,13.831271,,,
16483276000,0.999084,-0.01001,0.041382,-0.000366,-0.007812,0.003906,0.019531,13.842037,,,
16503755000,0.999084,-0.01001,0.041382,-0.000366,0.03125,0.003906,0.019531,13.862516,,,
16523949000,0.999084,-0.01001,0.041382,-0.000366,-0.007812,0.003906,0.019531,13.88271,,,
16552108000,0.999084,-0.01001,0.041382,-0.000366,-0.007812,0.003906,0.011719,13.910869,,,
16562618000,0.999084,-0.01001,0.041382,-0.000366,-0.007812,0.003906,0.011719,13.921379,,,
16585750000,0.999084,-0.01001,0.041382,-0.000366,0.03125,0.003906,0.011719,13.944511,,,
16603828000,0.999084,-0.01001,0.041382,-0.000366,-0.007812,0.003906,0.011719,13.962589,,,
16632394000,0.999084,-0.01001,0.041382,-0.000366,-0.007812,0.003906,-0.027344,13.991155,,,
16642567000,0.999084,-0.01001,0.041382,-0.000366,-0.007812,0.003906,-0.027344,14.001328,,,
16663440000,0.999084,-0.01001,0.041382,-0.000366,-0.007812,0.003906,0.011719,14.022201,,,
16692292000,0.999084,-0.01001,0.041382,-0.000366,-0.007812,0.003906,0.011719,14.051053,,,
16702212000,0.999084,-0.01001,0.041382,-0.000366,-0.007812,0.003906,-0.027344,14.060973,,,
16723386000,0.999084,-0.01001,0.041382,-0.000366,0.03125,0.003906,-0.019531,14.082147,,,
16743044000,0.999084,-0.01001,0.041382,-0.000366,-0.007812,0.042969,0.019531,14.101805,,,
16763400000,0.999084,-0.01001,0.041382,-0.000366,-0.007812,0.003906,-0.019531,14.122161,,,
16783393000,0.999084,-0.01001,0.041382,-0.000366,-0.007812,0.003906,0.019531,14.142154,,,
16811921000,0.999084,-0.01001,0.041382,-0.000366,-0.007812,0.003906,0.019531,14.170682,,,
16827947000,0.999084,-0.01001,0.041382,-0.000366,-0.007812,0.003906,-0.019531,14.186708,,,
16843060000,0.999084,-0.01001,0.041382,-0.000366,-0.007812,0.003906,-0.019531,14.201821,,,
16863352000,0.999084,-0.01001,0.041382,-0.000366,-0.007812,0.003906,0.019531,14.222113,,,
16891515000,0.999084,-0.01001,0.041382,-0.000366,-0.007812,0.003906,-0.019531,14.250276,,,
16911818000,0.999084,-0.01001,0.041382,-0.000366,0.03125,0.003906,0.019531,14.270579,,,
16922164000,0.999084,-0.01001,0.041382,-0.000366,-0.007812,0.003906,0.019531,14.280925,,,
16943377000,0.999084,-0.01001,0.041382,-0.000366,-0.007812,0.003906,-0.019531,14.302138,,,
16971917000,0.999084,-0.01001,0.041382,-0.000366,-0.007812,-0.035156,0.019531,14.330678,,,
16987111000,0.999084,-0.01001,0.041382,-0.000366,-0.007812,0.003906,0.019531,14.345872,,,
17014710000,0.999084,-0.01001,0.041382,-0.000366,-0.007812,0.003906,0.019531,14.373471,,,
17033113000,0.999084,-0.01001,0.041382,-0.000366,-0.007812,0.003906,0.019531,14.391874,,,
17051423000,0.999084,-0.01001,0.041382,-0.000366,-0.007812,0.003906,0.019531,14.410184,,,
17070835000,0.999084,-0.01001,0.041382,-0.000366,-0.007812,0.042969,0.019531,14.429596,,,
17097079000,0.999084,-0.01001,0.041382,-0.000366,0.0,0.003906,0.019531,14.45584,,,
17110878000,0.999084,-0.01001,0.041382,-0.000366,0.0,0.003906,-0.019531,14.469639,,,
17130788000,0.999084,-0.01001,0.041382,-0.000366,0.0,0.003906,0.019531,14.489549,,,
17152991000,0.999084,-0.01001,0.041382,-0.000366,0.0,0.003906,0.019531,14.511752,,,
17162169000,0.999084,-0.01001,0.041382,-0.000366,0.039062,0.003906,0.019531,14.52093,,,
17190901000,0.999084,-0.01001,0.041382,-0.000366,0.0,0.003906,-0.019531,14.549662,,,
17210786000,0.999084,-0.01001,0.041382,-0.000366,0.039062,0.003906,0.019531,14.569547,,,
17230660000,0.999084,-0.01001,0.041382,-0.000366,0.039062,0.003906,0.019531,14.589421,,,
17242147000,0.999084,-0.01001,0.041382,-0.000366,0.03125,0.003906,0.019531,14.600908,,,
17270364000,0.999084,-0.01001,0.041382,-0.000366,-0.007812,0.003906,0.019531,14.629125,,,
17291460000,0.999084,-0.01001,0.041382,-0.000366,-0.007812,0.003906,0.019531,14.650221,,,
17311080000,0.999084,-0.01001,0.041382,-0.000366,-0.007812,0.042969,0.019531,14.669841,,,
17330936000,0.999084,-0.01001,0.041382,-0.000366,-0.007812,0.003906,-0.019531,14.689697,,,
17350486000,0.999084,-0.01001,0.041382,-0.000366,-0.007812,-0.035156,0.019531,14.709247,,,
17370347000,0.999084,-0.01001,0.041382,-0.000366,-0.007812,0.003906,0.019531,14.729108,,,
17390290000,0.999084,-0.01001,0.041382,-0.000366,-0.007812,0.003906,-0.019531,14.749051,,,
17410009000,0.999084,-0.01001,0.041382,-0.000366,-0.007812,0.003906,0.019531,14.76877,,,
17430049000,0.999084,-0.01001,0.041382,-0.000366,-0.007812,0.003906,-0.019531,14.78881,,,
17454306000,0.999084,-0.01001,0.041382,-0.000366,-0.007812,0.003906,0.019531,14.813067,,,
17470125000,0.999084,-0.01001,0.041382,-0.000366,-0.007812,0.003906,0.019531,14.828886,,,
17489710000,0.999084,-0.01001,0.041382,-0.000366,-0.007812,0.003906,0.019531,14.848471,,,
17512798000,0.999084,-0.01001,0.041382,-0.000366,-0.007812,0.003906,-0.019531,14.871559,,,
17530005000,0.999084,-0.01001,0.041382,-0.000366,-0.007812,0.003906,0.019531,14.888766,,,
17551086000,0.999084,-0.01001,0.041382,-0.000366,-0.007812,0.003906,0.019531,14.909847,,,
17569898000,0.999084,-0.01001,0.041382,-0.000366,-0.007812,0.003906,0.019531,14.928659,,,
17589941000,0.999084,-0.01001,0.041382,-0.000366,-0.007812,-0.035156,0.019531,14.948702,,,
17613377000,0.999084,-0.01001,0.041382,-0.000366,-0.007812,0.003906,0.019531,14.972138,,,
17629751000,0.999084,-0.01001,0.041382,-0.000366,-0.007812,0.003906,-0.019531,14.988512,,,
17649506000,0.999084,-0.01001,0.041382,-0.000366,-0.007812,0.003906,0.019531,15.008267,,,
17669771000,0.999084,-0.01001,0.041382,-0.000366,-0.007812,0.003906,0.019531,15.028532,,,
17689683000,0.999084,-0.01001,0.041382,-0.000366,0.0,0.003906,-0.019531,15.048444,,,
17711516000,0.999084,-0.01001,0.041382,-0.000366,0.0,-0.035156,0.019531,15.070277,,,
17729679000,0.999084,-0.01001,0.041382,-0.000366,0.039062,0.003906,0.019531,15.08844,,,
17749572000,0.999084,-0.01001,0.041382,-0.000366,0.0,0.003906,-0.019531,15.108333,,,
17772900000,0.999084,-0.01001,0.041382,-0.000366,-0.007812,0.003906,-0.019531,15.131661,,,
17789684000,0.999084,-0.01001,0.041382,-0.000366,-0.007812,0.003906,0.019531,15.148445,,,
17811971000,0.999084,-0.01001,0.041382,-0.000366,-0.007812,0.003906,-0.011719,15.170732,,,
17828951000,0.999084,-0.01001,0.041382,-0.000366,-0.007812,0.003906,0.027344,15.187712,,,
17849322000,0.999084,-0.01001,0.041382,-0.000366,-0.007812,0.003906,0.027344,15.208083,,,
17868820000,0.999084,-0.01001,0.041382,-0.000366,-0.007812,0.003906,0.027344,15.227581,,,
17888614000,0.999084,-0.01001,0.041382,-0.000366,-0.007812,0.003906,0.027344,15.247375,,,
17908605000,0.999084,-0.01001,0.041382,-0.000366,-0.007812,0.003906,0.027344,15.267366,,,
17929478000,0.999084,-0.01001,0.041382,-0.000366,-0.007812,0.003906,0.027344,15.288239,,,
17950638000,0.999084,-0.01001,0.041382,-0.000366,0.03125,0.003906,0.027344,15.309399,,,
17968456000,0.999084,-0.01001,0.041382,-0.000366,-0.007812,0.003906,0.027344,15.327217,,,
17988862000,0.999084,-0.01001,0.041382,-0.000366,-0.007812,0.003906,0.027344,15.347623,,,
18008470000,0.999084,-0.01001,0.041382,-0.000366,-0.007812,0.003906,0.019531,15.367231,,,
18028483000,0.999084,-0.01001,0.041382,-0.000366,-0.007812,0.003906,0.019531,15.387244,,,
18050130000,0.999084,-0.01001,0.041382,-0.000366,-0.007812,0.003906,0.019531,15.408891,,,
18070043000,0.999084,-0.01001,0.041382,-0.000366,-0.007812,0.003906,0.019531,15.428804,,,
18088045000,0.999084,-0.01001,0.041382,-0.000366,-0.007812,0.003906,0.019531,15.446806,,,
18108882000,0.999084,-0.01001,0.041382,-0.000366,-0.007812,0.003906,0.019531,15.467643,,,
18132226000,0.999084,-0.01001,0.041382,-0.000366,-0.007812,0.003906,-0.019531,15.490987,,,
18147958000,0.999084,-0.01001,0.041382,-0.000366,0.03125,-0.035156,0.019531,15.506719,,,
18168024000,0.999084,-0.01001,0.041382,-0.000366,-0.007812,0.003906,0.019531,15.526785,,,
18189723000,0.999084,-0.01001,0.041382,-0.000366,-0.007812,0.003906,-0.019531,15.548484,,,
18207889000,0.999084,-0.01001,0.041382,-0.000366,-0.007812,0.003906,0.019531,15.56665,,,
18228134000,0.999084,-0.01001,0.041382,-0.000366,-0.007812,0.003906,0.019531,15.586895,,,
18248414000,0.999084,-0.01001,0.041382,-0.000366,-0.007812,0.003906,-0.019531,15.607175,,,
18273429000,0.999084,-0.01001,0.041382,-0.000366,0.0,0.003906,-0.019531,15.63219,,,
18287705000,0.999084,-0.01001,0.041382,-0.000366,0.0,0.003906,0.019531,15.646466,,,
18307599000,0.999084,-0.01001,0.041382,-0.000366,0.0,0.003906,0.019531,15.66636,,,
18329037000,0.999084,-0.01001,0.041382,-0.000366,0.039062,0.003906,-0.019531,15.687798,,,
18347419000,0.999084,-0.01001,0.041382,-0.000366,-0.007812,0.003906,-0.019531,15.70618,,,
18367796000,0.999084,-0.01001,0.041382,-0.000366,0.03125,0.003906,-0.019531,15.726557,,,
18387283000,0.999084,-0.01001,0.041382,-0.000366,-0.007812,0.003906,0.019531,15.746044,,,
18407548000,0.999084,-0.01001,0.041382,-0.000366,-0.007812,0.003906,-0.019531,15.766309,,,
18433093000,0.999084,-0.01001,0.041382,-0.000366,-0.007812,0.003906,0.019531,15.791854,,,
18447178000,0.999084,-0.01001,0.041382,-0.000366,0.03125,0.003906,0.019531,15.805939,,,
18467434000,0.999084,-0.01001,0.041382,-0.000366,0.03125,0.003906,0.019531,15.826195,,,
18487748000,0.999084,-0.01001,0.041382,-0.000366,-0.007812,0.042969,0.019531,15.846509,,,
18506991000,0.999084,-0.01001,0.041382,-0.000366,0.03125,0.003906,0.019531,15.865752,,,
18532386000,0.999084,-0.01001,0.041382,-0.000366,-0.007812,0.003906,-0.019531,15.891147,,,
18546775000,0.999084,-0.01001,0.041382,-0.000366,0.03125,0.003906,0.019531,15.905536,,,
18567411000,0.999084,-0.01001,0.041382,-0.000366,0.03125,-0.035156,0.019531,15.926172,,,
18588179000,0.999084,-0.01001,0.041382,-0.000366,-0.007812,0.003906,-0.019531,15.94694,,,
18606686000,0.999084,-0.01001,0.041382,-0.000366,-0.007812,0.003906,0.019531,15.965447,,,
18636673000,0.999084,-0.01001,0.041382,-0.000366,-0.007812,0.003906,0.019531,15.995434,,,
18647219000,0.999084,-0.01001,0.041382,-0.000366,-0.007812,0.003906,0.019531,16.00598,,,
18666685000,0.999084,-0.01001,0.041382,-0.000366,-0.007812,0.003906,0.019531,16.025446,,,
18687505000,0.999084,-0.01001,0.041382,-0.000366,-0.007812,0.042969,0.019531,16.046266,,,
18710951000,0.999084,-0.01001,0.041382,-0.000366,-0.007812,0.003906,0.019531,16.069712,,,
18726885000,0.999084,-0.01001,0.041382,-0.000366,-0.007812,0.003906,-0.019531,16.085646,,,
18746567000,0.999084,-0.01001,0.041382,-0.000366,-0.007812,0.003906,-0.019531,16.105328,,,
18771495000,0.999084,-0.01001,0.041382,-0.000366,-0.007812,0.003906,-0.019531,16.130256,,,
18786203000,0.999084,-0.01001,0.041382,-0.000366,-0.007812,0.003906,0.019531,16.144964,,,
18806302000,0.999084,-0.01001,0.041382,-0.000366,-0.046875,0.003906,0.019531,16.165063,,,
18827448000,0.999084,-0.01001,0.041382,-0.000366,-0.007812,0.003906,0.019531,16.186209,,,
18852204000,0.999084,-0.01001,0.041382,-0.000366,0.0,0.003906,-0.019531,16.210965,,,
18866435000,0.999084,-0.01001,0.041382,-0.000366,0.039062,0.003906,0.019531,16.225196,,,
18891335000,0.999084,-0.01001,0.041382,-0.000366,0.0,0.003906,-0.019531,16.250096,,,
18906226000,0.999084,-0.01001,0.041382,-0.000366,0.0,0.003906,0.019531,16.264987,,,
18926277000,0.999084,-0.01001,0.041382,-0.000366,0.0,0.003906,0.019531,16.285038,,,
18945869000,0.999084,-0.01001,0.041382,-0.000366,0.0,0.003906,0.019531,16.30463,,,
18965909000,0.999084,-0.01001,0.041382,-0.000366,0.0,0.003906,0.019531,16.32467,,,
18986006000,0.999084,-0.01001,0.041382,-0.000366,0.0,0.003906,0.019531,16.344767,,,
19005674000,0.999084,-0.01001,0.041382,-0.000366,0.0,0.003906,0.019531,16.364435,,,
19025812000,0.999084,-0.01001,0.041382,-0.000366,0.039062,0.003906,0.019531,16.384573,,,
19046032000,0.999084,-0.01001,0.041382,-0.000366,0.0,0.042969,0.019531,16.404793,,,
19065429000,0.999084,-0.01001,0.041382,-0.000366,0.0,0.003906,0.019531,16.42419,,,
19086178000,0.999084,-0.01001,0.041382,-0.000366,0.0,0.003906,0.019531,16.444939,,,
19111931000,0.999084,-0.01001,0.041382,-0.000366,0.0,0.003906,0.019531,16.470692,,,
19125429000,0.999084,-0.01001,0.041382,-0.000366,0.0,0.003906,0.019531,16.48419,,,
19146149000,0.999084,-0.01001,0.041382,-0.000366,0.0,0.003906,-0.019531,16.50491,,,
19165848000,0.999084,-0.01001,0.041382,-0.000366,0.0,0.003906,-0.019531,16.524609,,,
19190372000,0.999084,-0.01001,0.041382,-0.000366,0.0,0.003906,0.019531,16.549133,,,
19205212000,0.999084,-0.01001,0.041382,-0.000366,0.0,0.003906,-0.019531,16.563973,,,
19225441000,0.999084,-0.01001,0.041382,-0.000366,0.0,0.003906,0.058594,16.584202,,,
19247176000,0.999084,-0.01001,0.041382,-0.000366,0.0,0.003906,-0.019531,16.605937,,,
19275559000,0.999084,-0.01001,0.041382,-0.000366,0.0,0.003906,0.019531,16.63432,,,
19284986000,0.999084,-0.01001,0.041382,-0.000366,0.0,0.003906,0.058594,16.643747,,,
19305136000,0.999084,-0.01001,0.041382,-0.000366,0.0,0.003906,0.019531,16.663897,,,
19325005000,0.999084,-0.01001,0.041382,-0.000366,0.0,0.003906,0.019531,16.683766,,,
19352555000,0.999084,-0.01001,0.041382,-0.000366,0.039062,0.003906,0.019531,16.711316,,,
19365986000,0.999084,-0.01001,0.041382,-0.000366,0.0,0.003906,0.019531,16.724747,,,
19385487000,0.999084,-0.01001,0.041382,-0.000366,0.0,0.003906,0.019531,16.744248,,,
19404905000,0.999084,-0.01001,0.041382,-0.000366,-0.039062,0.003906,0.019531,16.763666,,,
19424630000,0.999084,-0.01001,0.041382,-0.000366,0.0,0.003906,0.011719,16.783391,,,
19453128000,0.999084,-0.01001,0.041382,-0.000366,0.0,0.003906,0.011719,16.811889,,,
19464942000,0.999084,-0.01001,0.041382,-0.000366,0.0,0.003906,0.011719,16.823703,,,
19489623000,0.999084,-0.01001,0.041382,-0.000366,0.039062,0.003906,0.011719,16.848384,,,
19504607000,0.999084,-0.01001,0.041382,-0.000366,0.039062,0.003906,0.011719,16.863368,,,
19525028000,0.999084,-0.01001,0.041382,-0.000366,0.0,0.003906,0.011719,16.883789,,,
19544693000,0.999084,-0.01001,0.041382,-0.000366,-0.007812,0.003906,0.011719,16.903454,,,
19565488000,0.999084,-0.01001,0.041382,-0.000366,-0.007812,0.003906,0.011719,16.924249,,,
19589947000,0.999084,-0.01001,0.041382,-0.000366,-0.007812,0.003906,-0.027344,16.948708,,,
19604647000,0.999084,-0.01001,0.041382,-0.000366,-0.007812,0.003906,0.011719,16.963408,,,
19625657000,0.999084,-0.01001,0.041382,-0.000366,-0.007812,0.003906,0.011719,16.984418,,,
19644394000,0.999084,-0.01001,0.041382,-0.000366,-0.007812,0.003906,0.011719,17.003155,,,
19674392000,0.999084,-0.01001,0.041382,-0.000366,-0.007812,0.003906,0.011719,17.033153,,,
19684154000,0.999084,-0.01001,0.041382,-0.000366,-0.007812,0.003906,0.011719,17.042915,,,
19704089000,0.999084,-0.01001,0.041382,-0.000366,-0.007812,0.003906,-0.027344,17.06285,,,
19724313000,0.999084,-0.01001,0.041382,-0.000366,-0.007812,0.003906,-0.027344,17.083074,,,
19754809000,0.999084,-0.01001,0.041382,-0.000366,0.0,0.003906,-0.027344,17.11357,,,
19763394000,0.999084,-0.01001,0.041382,-0.000366,-0.039062,0.003906,0.011719,17.122155,,,
19784405000,0.999084,-0.01001,0.041382,-0.000366,0.0,0.003906,0.011719,17.143166,,,
19804356000,0.999084,-0.01001,0.041382,-0.000366,0.0,-0.035156,-0.019531,17.163117,,,
19824129000,0.999084,-0.01001,0.041382,-0.000366,0.0,0.003906,0.019531,17.18289,,,
19853838000,0.999084,-0.01001,0.041382,-0.000366,0.0,0.003906,-0.019531,17.212599,,,
19863649000,0.999084,-0.01001,0.041382,-0.000366,0.0,0.003906,0.019531,17.22241,,,
19884985000,0.999084,-0.01001,0.041382,-0.000366,0.039062,0.003906,0.019531,17.243746,,,
19904046000,0.999084,-0.01001,0.041382,-0.000366,0.0,0.003906,0.019531,17.262807,,,
19924005000,0.999084,-0.01001,0.041382,-0.000366,0.039062,0.003906,0.019531,17.282766,,,
19944085000,0.999084,-0.01001,0.041382,-0.000366,0.0,-0.035156,0.019531,17.302846,,,
19973172000,0.999084,-0.01001,0.041382,-0.000366,0.0,0.003906,0.019531,17.331933,,,
19987988000,0.999084,-0.01001,0.041382,-0.000366,0.0,0.003906,0.019531,17.346749,,,
20003761000,0.999084,-0.01001,0.041382,-0.000366,0.0,0.003906,0.019531,17.362522,,,
20023752000,0.999084,-0.01001,0.041382,-0.000366,0.0,0.003906,0.019531,17.382513,,,
20053286000,0.999084,-0.01001,0.041382,-0.000366,0.0,0.003906,-0.019531,17.412047,,,
20068955000,0.999084,-0.01001,0.041382,-0.000366,0.0,0.003906,0.019531,17.427716,,,
20083588000,0.999084,-0.01001,0.041382,-0.000366,0.0,0.003906,-0.019531,17.442349,,,
20104391000,0.999084,-0.01001,0.041382,-0.000366,0.0,0.003906,0.019531,17.463152,,,
20129159000,0.999084,-0.01001,0.041382,-0.000366,0.0,0.003906,0.019531,17.48792,,,
20144050000,0.999084,-0.01001,0.041382,-0.000366,0.0,0.003906,0.019531,17.502811,,,
20163779000,0.999084,-0.01001,0.041382,-0.000366,-0.039062,0.003906,-0.019531,17.52254,,,
20183443000,0.999084,-0.01001,0.041382,-0.000366,0.0,0.003906,0.019531,17.542204,,,
20208237000,0.999084,-0.01001,0.041382,-0.000366,0.0,0.003906,0.019531,17.566998,,,
20223528000,0.999084,-0.01001,0.041382,-0.000366,0.0,0.003906,0.019531,17.582289,,,
20243409000,0.999084,-0.01001,0.041382,-0.000366,0.0,0.003906,0.019531,17.60217,,,
20263423000,0.999084,-0.01001,0.041382,-0.000366,0.039062,0.003906,0.019531,17.622184,,,
20292123000,0.999084,-0.01001,0.041382,-0.000366,0.0,0.003906,0.011719,17.650884,,,
20302141000,0.999084,-0.01001,0.041382,-0.000366,0.0,0.003906,0.011719,17.660902,,,
20324162000,0.999084,-0.01001,0.041382,-0.000366,0.039062,0.003906,-0.027344,17.682923,,,
20343459000,0.999084,-0.01001,0.041382,-0.000366,0.0,0.042969,0.011719,17.70222,,,
20374160000,0.999084,-0.01001,0.041382,-0.000366,0.0,0.003906,-0.027344,17.732921,,,
20382386000,0.999084,-0.01001,0.041382,-0.000366,0.039062,0.003906,-0.027344,17.741147,,,
20403802000,0.999084,-0.01001,0.041382,-0.000366,0.039062,0.003906,0.011719,17.762563,,,
20428653000,0.999084,-0.01001,0.041382,-0.000366,0.0,0.003906,-0.027344,17.787414,,,
20443267000,0.999084,-0.01001,0.041382,-0.000366,-0.007812,0.003906,0.011719,17.802028,,,
20466346000,0.999084,-0.01001,0.041382,-0.000366,-0.007812,0.003906,-0.019531,17.825107,,,
20483358000,0.999084,-0.01001,0.041382,-0.000366,-0.007812,-0.035156,-0.019531,17.842119,,,
20511677000,0.999084,-0.01001,0.041382,-0.000366,-0.007812,0.003906,-0.019531,17.870438,,,
20522153000,0.999084,-0.01001,0.041382,-0.000366,-0.007812,0.003906,-0.019531,17.880914,,,
20543393000,0.999084,-0.01001,0.041382,-0.000366,-0.007812,-0.035156,0.019531,17.902154,,,
20571602000,0.999084,-0.01001,0.041382,-0.000366,-0.007812,0.042969,-0.019531,17.930363,,,
20582399000,0.999084,-0.01001,0.041382,-0.000366,0.03125,0.003906,-0.019531,17.94116,,,
20612206000,0.999084,-0.01001,0.041382,-0.000366,0.03125,0.003906,-0.019531,17.970967,,,
20631441000,0.999084,-0.01001,0.041382,-0.000366,-0.007812,0.003906,0.019531,17.990202,,,
20642142000,0.999084,-0.01001,0.041382,-0.000366,-0.007812,0.003906,-0.019531,18.000903,,,
20663410000,0.999084,-0.01001,0.041382,-0.000366,-0.046875,0.003906,0.019531,18.022171,,,
20691955000,0.999084,-0.01001,0.041382,-0.000366,-0.007812,0.003906,-0.019531,18.050716,,,
20710817000,0.999084,-0.01001,0.041382,-0.000366,0.0,0.003906,-0.019531,18.069578,,,
20736800000,0.999084,-0.01001,0.041382,-0.000366,0.0,0.003906,0.019531,18.095561,,,
20751641000,0.999084,-0.01001,0.041382,-0.000366,0.0,0.003906,0.019531,18.110402,,,
20771472000,0.999084,-0.01001,0.041382,-0.000366,0.0,-0.035156,0.019531,18.130233,,,
20794917000,0.999084,-0.01001,0.041382,-0.000366,0.039062,0.003906,-0.019531,18.153678,,,
20811242000,0.999084,-0.01001,0.041382,-0.000366,0.0,0.003906,0.019531,18.170003,,,
20831195000,0.999084,-0.01001,0.041382,-0.000366,0.0,0.003906,-0.019531,18.189956,,,
20850211000,0.999084,-0.01001,0.041382,-0.000366,-0.007812,0.003906,-0.019531,18.208972,,,
20875947000,0.999084,-0.01001,0.041382,-0.000366,-0.007812,0.003906,0.019531,18.234708,,,
20890969000,0.999084,-0.01001,0.041382,-0.000366,0.0,0.003906,0.019531,18.24973,,,
20911341000,0.999084,-0.01001,0.041382,-0.000366,0.039062,0.003906,-0.019531,18.270102,,,
20931043000,0.999084,-0.01001,0.041382,-0.000366,-0.007812,-0.035156,-0.019531,18.289804,,,
20953245000,0.999084,-0.01001,0.041382,-0.000366,-0.007812,0.003906,0.019531,18.312006,,,
20976697000,0.999084,-0.01001,0.041443,-0.000366,-0.007812,0.003906,0.019531,18.335458,,,
20991086000,0.999084,-0.01001,0.041443,-0.000366,0.0,0.003906,0.019531,18.349847,,,
21010749000,0.999084,-0.010071,0.041382,-0.000366,0.0,0.003906,-0.019531,18.36951,,,
21030748000,0.999084,-0.010071,0.041382,-0.000366,0.0,0.003906,-0.019531,18.389509,,,
21050562000,0.999084,-0.010071,0.041443,-0.000366,0.0,0.003906,0.019531,18.409323,,,
21075168000,0.999084,-0.010071,0.041443,-0.000366,0.0,0.003906,-0.019531,18.433929,,,
21090288000,0.999084,-0.010071,0.041382,-0.000366,0.0,0.003906,-0.019531,18.449049,,,
21110115000,0.999084,-0.010071,0.041382,-0.000366,0.0,0.003906,-0.019531,18.468876,,,
21131220000,0.999084,-0.010071,0.041382,-0.000366,0.0,0.003906,-0.019531,18.489981,,,
21154249000,0.999084,-0.010071,0.041443,-0.000366,0.039062,0.003906,-0.019531,18.51301,,,
21169893000,0.999084,-0.010071,0.041443,-0.000366,0.039062,0.003906,-0.019531,18.528654,,,
21192522000,0.999084,-0.010071,0.041382,-0.000427,0.0,0.003906,-0.019531,18.551283,,,
21212702000,0.999084,-0.01001,0.041382,-0.000366,0.0,0.003906,-0.019531,18.571463,,,
21234989000,0.999084,-0.010071,0.041382,-0.000427,0.0,0.003906,-0.019531,18.59375,,,
21250548000,0.999084,-0.010071,0.041382,-0.000366,0.0,0.003906,0.019531,18.609309,,,
21269917000,0.999084,-0.010071,0.041382,-0.000366,0.0,0.003906,-0.019531,18.628678,,,
21290000000,0.999084,-0.010071,0.041382,-0.000366,0.0,0.003906,0.019531,18.648761,,,
21309909000,0.999084,-0.010071,0.041382,-0.000366,-0.007812,0.003906,0.019531,18.66867,,,
21330682000,0.999084,-0.010071,0.041382,-0.000366,-0.007812,0.003906,0.019531,18.689443,,,
21349603000,0.999084,-0.010071,0.041382,-0.000366,-0.007812,0.003906,-0.019531,18.708364,,,
21370172000,0.999084,-0.010132,0.041382,-0.000366,-0.007812,0.003906,-0.019531,18.728933,,,
21390173000,0.999084,-0.010132,0.041382,-0.000366,-0.007812,0.003906,-0.019531,18.748934,,,
21409830000,0.999084,-0.010132,0.041382,-0.000366,-0.007812,0.003906,0.019531,18.768591,,,
21429811000,0.999084,-0.010132,0.041382,-0.000366,-0.007812,0.003906,-0.019531,18.788572,,,
21449401000,0.999084,-0.010132,0.041382,-0.000366,0.0,0.003906,-0.019531,18.808162,,,
21469582000,0.999084,-0.010193,0.041382,-0.000366,0.039062,0.003906,-0.019531,18.828343,,,
21489491000,0.999084,-0.010193,0.041382,-0.000366,-0.007812,0.003906,0.019531,18.848252,,,
21509295000,0.999084,-0.010193,0.041382,-0.000366,-0.007812,0.011719,0.019531,18.868056,,,
21529876000,0.999084,-0.010193,0.041382,-0.000366,0.0,0.011719,0.019531,18.888637,,,
21549564000,0.999084,-0.010193,0.041382,-0.000366,0.0,0.011719,-0.019531,18.908325,,,
21569214000,0.999084,-0.010193,0.041382,-0.000366,0.0,0.011719,0.019531,18.927975,,,
21589628000,0.999084,-0.010132,0.041382,-0.000366,0.03125,0.011719,-0.019531,18.948389,,,
21618609000,0.999084,-0.010132,0.041443,-0.000366,-0.007812,0.003906,0.019531,18.97737,,,
21635644000,0.999084,-0.010132,0.041443,-0.000366,-0.007812,0.003906,0.019531,18.994405,,,
21649181000,0.999084,-0.010132,0.041382,-0.000366,-0.007812,0.003906,0.019531,19.007942,,,
21669369000,0.999084,-0.010132,0.041382,-0.000366,-0.007812,0.003906,-0.019531,19.02813,,,
21689016000,0.999084,-0.010132,0.041382,-0.000366,0.03125,0.003906,-0.019531,19.047777,,,
21718556000,0.999084,-0.010071,0.041382,-0.000366,-0.007812,0.003906,-0.019531,19.077317,,,
21732942000,0.999084,-0.010071,0.041443,-0.000305,-0.007812,0.003906,0.019531,19.091703,,,
21748481000,0.999084,-0.010071,0.041443,-0.000366,0.03125,0.003906,0.019531,19.107242,,,
21769225000,0.999084,-0.010071,0.041443,-0.000366,0.03125,0.003906,0.019531,19.127986,,,
21790732000,0.999084,-0.010071,0.041443,-0.000366,-0.007812,0.003906,0.011719,19.149493,,,
21809032000,0.999084,-0.010071,0.041443,-0.000366,-0.007812,0.003906,-0.027344,19.167793,,,
21828418000,0.999084,-0.010071,0.041443,-0.000366,-0.007812,0.003906,0.011719,19.187179,,,
21848502000,0.999084,-0.010071,0.041382,-0.000305,-0.007812,0.003906,0.011719,19.207263,,,
21868126000,0.999084,-0.010071,0.041382,-0.000305,-0.007812,0.003906,0.011719,19.226887,,,
21888430000,0.999084,-0.010071,0.041382,-0.000305,-0.007812,0.003906,0.011719,19.247191,,,
21914685000,0.999084,-0.010071,0.041382,-0.000305,0.03125,0.003906,0.011719,19.273446,,,
21928015000,0.999084,-0.010071,0.041382,-0.000305,0.03125,0.003906,0.050781,19.286776,,,
21948124000,0.999084,-0.010132,0.041382,-0.000305,-0.007812,0.003906,0.011719,19.306885,,,
21973027000,0.999084,-0.010071,0.041382,-0.000366,-0.007812,0.003906,0.011719,19.331788,,,
21987715000,0.999084,-0.010132,0.041382,-0.000305,-0.007812,0.003906,-0.027344,19.346476,,,
22008062000,0.999084,-0.010132,0.041382,-0.000305,-0.007812,0.003906,-0.027344,19.366823,,,
22032713000,0.999084,-0.010132,0.041382,-0.000305,-0.007812,0.003906,-0.027344,19.391474,,,
22047588000,0.999084,-0.010132,0.041382,-0.000305,-0.007812,0.003906,0.011719,19.406349,,,
22067493000,0.999084,-0.010132,0.041382,-0.000305,-0.007812,0.003906,0.011719,19.426254,,,
22087368000,0.999084,-0.010132,0.041382,-0.000305,-0.007812,0.003906,0.011719,19.446129,,,
22113841000,0.999084,-0.010132,0.041382,-0.000305,0.03125,0.003906,0.011719,19.472602,,,
22127373000,0.999084,-0.010132,0.041382,-0.000305,-0.007812,0.003906,0.011719,19.486134,,,
22148381000,0.999084,-0.010132,0.041382,-0.000305,-0.007812,0.003906,-0.027344,19.507142,,,
22177408000,0.999084,-0.010132,0.041382,-0.000305,-0.007812,0.003906,0.019531,19.536169,,,
22189419000,0.999084,-0.010132,0.041382,-0.000305,-0.007812,0.003906,0.019531,19.54818,,,
22206879000,0.999084,-0.010132,0.041382,-0.000305,-0.007812,0.003906,-0.019531,19.56564,,,
22227240000,0.999084,-0.010132,0.041382,-0.000305,-0.007812,0.003906,0.019531,19.586001,,,
22247600000,0.999084,-0.010132,0.041382,-0.000305,-0.007812,0.003906,-0.019531,19.606361,,,
22272187000,0.999084,-0.010132,0.041382,-0.000305,-0.007812,0.003906,-0.019531,19.630948,,,
22286878000,0.999084,-0.010132,0.041382,-0.000305,-0.007812,0.003906,-0.019531,19.645639,,,
22307122000,0.999084,-0.010132,0.041382,-0.000305,-0.007812,0.003906,-0.019531,19.665883,,,
22331726000,0.999084,-0.010132,0.041382,-0.000305,-0.007812,0.003906,-0.019531,19.690487,,,
22346732000,0.999084,-0.010132,0.041382,-0.000305,0.0,0.003906,-0.019531,19.705493,,,
22366802000,0.999084,-0.010132,0.041382,-0.000305,-0.039062,0.003906,0.019531,19.725563,,,
22386561000,0.999084,-0.010132,0.041382,-0.000305,0.039062,0.003906,0.019531,19.745322,,,
22412131000,0.999084,-0.010132,0.041382,-0.000305,0.0,0.003906,0.058594,19.770892,,,
22426309000,0.999084,-0.010132,0.041382,-0.000305,0.0,0.003906,0.019531,19.78507,,,
22447271000,0.999084,-0.010132,0.041382,-0.000305,0.039062,0.003906,0.019531,19.806032,,,
22478321000,0.999084,-0.010132,0.041382,-0.000305,0.039062,0.003906,0.019531,19.837082,,,
22486315000,0.999084,-0.010132,0.041382,-0.000305,0.0,0.003906,-0.019531,19.845076,,,
22506340000,0.999084,-0.010132,0.041382,-0.000305,0.0,0.003906,0.019531,19.865101,,,
22526998000,0.999084,-0.010132,0.041382,-0.000305,-0.007812,0.003906,-0.019531,19.885759,,,
22546375000,0.999084,-0.010132,0.041382,-0.000305,-0.007812,0.003906,0.019531,19.905136,,,
22572103000,0.999084,-0.010132,0.041382,-0.000305,-0.007812,0.003906,-0.019531,19.930864,,,
22586486000,0.999084,-0.010132,0.041382,-0.000305,-0.007812,0.003906,-0.019531,19.945247,,,
22606332000,0.999084,-0.010132,0.041382,-0.000305,-0.007812,0.003906,-0.019531,19.965093,,,
22627419000,0.999084,-0.010132,0.041382,-0.000305,-0.007812,0.003906,0.019531,19.98618,,,
22656349000,0.999084,-0.010132,0.041382,-0.000305,-0.007812,0.003906,0.019531,20.01511,,,
22665878000,0.999084,-0.010132,0.041382,-0.000305,-0.007812,0.003906,-0.019531,20.024639,,,
22685831000,0.999084,-0.010132,0.041382,-0.000305,-0.007812,0.003906,0.019531,20.044592,,,
22716055000,0.999084,-0.010132,0.041382,-0.000305,-0.007812,0.003906,0.019531,20.074816,,,
22725695000,0.999084,-0.010132,0.041382,-0.000305,0.03125,0.003906,-0.019531,20.084456,,,
22745999000,0.999084,-0.010132,0.041382,-0.000305,-0.007812,0.003906,-0.019531,20.10476,,,
22766048000,0.999084,-0.010132,0.041382,-0.000305,0.03125,0.003906,0.019531,20.124809,,,
22791012000,0.999084,-0.010132,0.041382,-0.000305,-0.007812,0.003906,0.019531,20.149773,,,
22805444000,0.999084,-0.010132,0.041382,-0.000305,-0.007812,0.003906,-0.019531,20.164205,,,
22825750000,0.999084,-0.010132,0.041382,-0.000305,-0.007812,0.003906,0.019531,20.184511,,,
22845605000,0.999084,-0.010132,0.041382,-0.000305,-0.007812,0.003906,0.019531,20.204366,,,
22875110000,0.999084,-0.010132,0.041382,-0.000305,-0.007812,0.003906,0.019531,20.233871,,,
22885225000,0.999084,-0.010132,0.041382,-0.000305,-0.046875,0.003906,-0.019531,20.243986,,,
22905596000,0.999084,-0.010132,0.041382,-0.000305,-0.007812,0.003906,0.019531,20.264357,,,
22925435000,0.999084,-0.010132,0.041382,-0.000305,-0.007812,0.003906,0.019531,20.284196,,,
22950438000,0.999084,-0.010132,0.041382,-0.000305,-0.007812,0.003906,-0.027344,20.309199,,,
22964921000,0.999084,-0.010132,0.041382,-0.000305,-0.007812,0.003906,0.011719,20.323682,,,
22984990000,0.999084,-0.010132,0.041382,-0.000305,0.0,0.003906,0.011719,20.343751,,,
23005776000,0.999084,-0.010132,0.041382,-0.000305,0.0,0.003906,0.011719,20.364537,,,
23029274000,0.999084,-0.010132,0.041382,-0.000305,0.039062,0.003906,-0.027344,20.388035,,,
23044958000,0.999084,-0.010132,0.041382,-0.000366,0.0,0.003906,-0.027344,20.403719,,,
23065245000,0.999084,-0.010132,0.041382,-0.000366,0.0,0.003906,0.011719,20.424006,,,
23094973000,0.999084,-0.010071,0.041382,-0.000366,0.0,0.003906,-0.027344,20.453734,,,
23109869000,0.999084,-0.010071,0.041382,-0.000366,-0.007812,0.003906,-0.027344,20.46863,,,
23125558000,0.999084,-0.010132,0.041382,-0.000305,-0.007812,0.003906,0.011719,20.484319,,,
23144818000,0.999084,-0.010132,0.041443,-0.000305,-0.007812,0.003906,0.011719,20.503579,,,
23165347000,0.999084,-0.010132,0.041443,-0.000305,0.03125,0.003906,-0.027344,20.524108,,,
23184757000,0.999084,-0.010132,0.041443,-0.000305,-0.007812,0.003906,0.011719,20.543518,,,
23205144000,0.999084,-0.010132,0.041443,-0.000305,0.0,0.003906,0.050781,20.563905,,,
23234373000,0.999084,-0.010132,0.041443,-0.000305,0.0,0.003906,-0.027344,20.593134,,,
23250194000,0.999084,-0.010132,0.041443,-0.000305,0.0,0.003906,0.011719,20.608955,,,
23264381000,0.999084,-0.010132,0.041443,-0.000305,0.0,0.003906,-0.027344,20.623142,,,
23284413000,0.999084,-0.010071,0.041443,-0.000305,0.0,0.003906,0.011719,20.643174,,,
23314382000,0.999084,-0.010071,0.041443,-0.000305,0.0,0.003906,0.011719,20.673143,,,
23328863000,0.999084,-0.010071,0.041504,-0.000305,0.0,0.003906,0.011719,20.687624,,,
23344988000,0.999084,-0.010132,0.041443,-0.000305,0.0,0.003906,0.011719,20.703749,,,
23364383000,0.999084,-0.010132,0.041443,-0.000305,0.039062,0.003906,-0.019531,20.723144,,,
23384811000,0.999084,-0.010071,0.041443,-0.000305,0.0,0.003906,-0.019531,20.743572,,,
23413775000,0.999084,-0.010071,0.041443,-0.000305,0.0,0.042969,0.019531,20.772536,,,
23424679000,0.999084,-0.010071,0.041443,-0.000305,0.0,0.003906,0.019531,20.78344,,,
23445963000,0.999084,-0.010071,0.041443,-0.000305,-0.007812,0.003906,0.019531,20.804724,,,
23464516000,0.999084,-0.010071,0.041443,-0.000305,-0.007812,0.003906,-0.019531,20.823277,,,
23494463000,0.999084,-0.01001,0.041443,-0.000305,-0.007812,0.003906,0.019531,20.853224,,,
23504403000,0.999084,-0.010071,0.041443,-0.000305,-0.007812,0.003906,0.019531,20.863164,,,
23524056000,0.999084,-0.010071,0.041443,-0.000305,-0.007812,0.003906,-0.019531,20.882817,,,
23553457000,0.999084,-0.01001,0.041443,-0.000305,-0.007812,0.042969,0.019531,20.912218,,,
23563717000,0.999084,-0.010071,0.041443,-0.000305,-0.007812,0.003906,0.019531,20.922478,,,
23584406000,0.999084,-0.010071,0.041443,-0.000244,-0.015625,0.003906,0.019531,20.943167,,,
23613444000,0.999084,-0.01001,0.041443,-0.000244,-0.015625,0.003906,0.019531,20.972205,,,
23623508000,0.999084,-0.01001,0.041443,-0.000244,-0.015625,0.003906,0.019531,20.982269,,,
23644457000,0.999084,-0.01001,0.041443,-0.000244,-0.007812,0.003906,0.019531,21.003218,,,
23663830000,0.999084,-0.01001,0.041443,-0.000305,-0.015625,0.003906,-0.019531,21.022591,,,
23683910000,0.999084,-0.01001,0.041443,-0.000305,-0.007812,0.003906,-0.027344,21.042671,,,
23712990000,0.999084,-0.01001,0.041443,-0.000305,-0.007812,0.003906,-0.019531,21.071751,,,
23723486000,0.999084,-0.01001,0.041443,-0.000305,-0.007812,0.003906,-0.019531,21.082247,,,
23743802000,0.999084,-0.01001,0.041443,-0.000305,-0.007812,0.003906,-0.019531,21.102563,,,
23763828000,0.999084,-0.01001,0.041443,-0.000244,-0.007812,0.003906,-0.019531,21.122589,,,
23783805000,0.999084,-0.01001,0.041443,-0.000244,-0.007812,0.003906,0.019531,21.142566,,,
23812701000,0.999084,-0.01001,0.041443,-0.000244,0.0,0.042969,0.019531,21.171462,,,
23823023000,0.999084,-0.01001,0.041443,-0.000244,0.0,0.003906,-0.019531,21.181784,,,
23843772000,0.999084,-0.01001,0.041443,-0.000244,-0.007812,0.003906,-0.019531,21.202533,,,
23873230000,0.999084,-0.010071,0.041443,-0.000244,-0.046875,0.003906,0.019531,21.231991,,,
23883250000,0.999084,-0.01001,0.041443,-0.000244,0.03125,0.003906,0.019531,21.242011,,,
23903422000,0.999084,-0.01001,0.041443,-0.000244,0.0,0.003906,-0.019531,21.262183,,,
23923811000,0.999084,-0.01001,0.041443,-0.000244,0.039062,0.003906,0.019531,21.282572,,,
23952497000,0.999084,-0.01001,0.041443,-0.000244,-0.007812,0.003906,-0.019531,21.311258,,,
23962406000,0.999084,-0.01001,0.041443,-0.000244,-0.007812,0.003906,0.019531,21.321167,,,
23992577000,0.999084,-0.009949,0.041443,-0.000244,-0.046875,0.003906,0.019531,21.351338,,,
24002219000,0.999084,-0.009949,0.041443,-0.000244,-0.007812,-0.035156,0.019531,21.36098,,,
24023442000,0.999084,-0.009949,0.041443,-0.000244,0.03125,0.042969,0.019531,21.382203,,,
24052460000,0.999084,-0.009949,0.041443,-0.000244,0.0,0.003906,-0.019531,21.411221,,,
24062419000,0.999084,-0.009949,0.041504,-0.000244,0.0,0.003906,0.019531,21.42118,,,
24083507000,0.999084,-0.009949,0.041504,-0.000244,0.0,-0.035156,0.019531,21.442268,,,
24112039000,0.999084,-0.009949,0.041504,-0.000244,0.0,0.003906,0.019531,21.4708,,,
24126767000,0.999084,-0.009949,0.041504,-0.000244,0.0,0.003906,0.019531,21.485528,,,
24143301000,0.999084,-0.009949,0.041504,-0.000244,0.0,0.003906,0.019531,21.502062,,,
24172277000,0.999084,-0.009949,0.041504,-0.000244,0.0,0.003906,-0.019531,21.531038,,,
24183088000,0.999084,-0.009949,0.041504,-0.000244,0.0,0.003906,0.019531,21.541849,,,
24203111000,0.999084,-0.009949,0.041504,-0.000244,0.039062,0.042969,-0.019531,21.561872,,,
24231770000,0.999084,-0.009949,0.041504,-0.000244,0.0,0.003906,0.019531,21.590531,,,
24242184000,0.999084,-0.009949,0.041504,-0.000244,0.0,0.003906,0.019531,21.600945,,,
24276456000,0.999084,-0.009949,0.041504,-0.000244,0.0,0.003906,0.019531,21.635217,,,
24293360000,0.999084,-0.009949,0.041504,-0.000244,0.0,0.003906,0.011719,21.652121,,,
24311139000,0.999084,-0.009949,0.041504,-0.000244,0.0,0.003906,0.011719,21.6699,,,
24322171000,0.999084,-0.009949,0.041504,-0.000244,0.0,0.003906,0.011719,21.680932,,,
24350965000,0.999084,-0.009949,0.041504,-0.000244,0.0,0.003906,0.011719,21.709726,,,
24371638000,0.999084,-0.009949,0.041504,-0.000244,0.0,0.003906,0.011719,21.730399,,,
24391303000,0.999084,-0.009949,0.041504,-0.000244,0.0,0.003906,0.011719,21.750064,,,
24402174000,0.999084,-0.009949,0.041504,-0.000244,0.0,0.003906,0.050781,21.760935,,,
24431220000,0.999084,-0.009949,0.041504,-0.000244,0.0,0.003906,0.011719,21.789981,,,
24442178000,0.999084,-0.009949,0.041504,-0.000244,0.0,0.003906,-0.027344,21.800939,,,
24471168000,0.999084,-0.009949,0.041504,-0.000244,0.039062,0.003906,0.011719,21.829929,,,
24486685000,0.999084,-0.009949,0.041504,-0.000244,0.0,0.042969,0.011719,21.845446,,,
24516759000,0.999084,-0.009949,0.041504,-0.000244,0.0,0.003906,0.011719,21.87552,,,
24530632000,0.999084,-0.009949,0.041504,-0.000244,-0.007812,0.003906,-0.027344,21.889393,,,
24552041000,0.999084,-0.009949,0.041504,-0.000244,-0.007812,0.003906,-0.019531,21.910802,,,
24573709000,0.999084,-0.009949,0.041504,-0.000244,-0.007812,0.003906,-0.019531,21.93247,,,
24590677000,0.999084,-0.009949,0.041504,-0.000244,-0.007812,0.003906,0.019531,21.949438,,,
24610901000,0.999084,-0.009949,0.041504,-0.000244,-0.007812,0.003906,0.019531,21.969662,,,
24630428000,0.999084,-0.009949,0.041504,-0.000244,-0.007812,0.003906,0.019531,21.989189,,,
24656606000,0.999084,-0.009949,0.041504,-0.000244,-0.007812,0.003906,-0.019531,22.015367,,,
24671078000,0.999084,-0.009949,0.041504,-0.000244,-0.007812,0.003906,0.019531,22.029839,,,
24695420000,0.999084,-0.009949,0.041504,-0.000244,-0.007812,0.003906,0.019531,22.054181,,,
24710390000,0.999084,-0.009949,0.041504,-0.000244,-0.007812,0.003906,0.019531,22.069151,,,
24730523000,0.999084,-0.009949,0.041504,-0.000244,-0.007812,0.003906,0.019531,22.089284,,,
24750205000,0.999084,-0.009949,0.041504,-0.000244,-0.007812,0.003906,0.019531,22.108966,,,
24770233000,0.999084,-0.009949,0.041504,-0.000244,-0.007812,0.003906,0.019531,22.128994,,,
24790746000,0.999084,-0.009949,0.041504,-0.000244,-0.007812,0.003906,-0.019531,22.149507,,,
24811380000,0.999084,-0.009949,0.041504,-0.000244,-0.007812,0.003906,0.019531,22.170141,,,
24829996000,0.999084,-0.009949,0.041504,-0.000244,-0.007812,0.003906,-0.019531,22.188757,,,
24853781000,0.999084,-0.009949,0.041504,-0.000244,-0.007812,0.003906,0.019531,22.212542,,,
24869897000,0.999084,-0.009949,0.041504,-0.000244,-0.007812,0.003906,-0.019531,22.228658,,,
24889820000,0.999084,-0.009949,0.041504,-0.000244,-0.007812,0.003906,-0.019531,22.248581,,,
24910388000,0.999084,-0.009949,0.041504,-0.000244,-0.007812,0.003906,0.019531,22.269149,,,
24929845000,0.999084,-0.009949,0.041504,-0.000244,-0.007812,0.003906,0.019531,22.288606,,,
24949461000,0.999084,-0.009949,0.041504,-0.000244,-0.007812,0.003906,-0.019531,22.308222,,,
24972314000,0.999084,-0.009949,0.041504,-0.000244,-0.007812,0.003906,-0.019531,22.331075,,,
24989560000,0.999084,-0.009949,0.041504,-0.000244,-0.007812,0.003906,0.019531,22.348321,,,
25009882000,0.999084,-0.009949,0.041504,-0.000244,-0.007812,0.003906,0.019531,22.368643,,,
25029264000,0.999084,-0.009949,0.041504,-0.000244,-0.007812,0.003906,0.058594,22.388025,,,
25049194000,0.999084,-0.009949,0.041504,-0.000244,0.03125,0.003906,0.019531,22.407955,,,
25071309000,0.999084,-0.009949,0.041504,-0.000244,-0.007812,0.003906,0.019531,22.43007,,,
25089072000,0.999084,-0.009949,0.041504,-0.000244,-0.007812,0.003906,0.019531,22.447833,,,
25109707000,0.999084,-0.009949,0.041504,-0.000244,-0.007812,0.003906,0.019531,22.468468,,,
25133343000,0.999084,-0.009949,0.041504,-0.000244,0.0,0.003906,0.019531,22.492104,,,
25150007000,0.999084,-0.009949,0.041504,-0.000244,0.039062,0.003906,0.019531,22.508768,,,
25168735000,0.999084,-0.009949,0.041504,-0.000244,0.0,0.003906,0.019531,22.527496,,,
25195123000,0.999084,-0.009949,0.041504,-0.000244,0.0,0.003906,-0.019531,22.553884,,,
25208821000,0.999084,-0.009949,0.041504,-0.000244,0.0,0.003906,0.019531,22.567582,,,
25229240000,0.999084,-0.009949,0.041504,-0.000244,0.0,0.003906,-0.019531,22.588001,,,
25248754000,0.999084,-0.009949,0.041504,-0.000244,0.03125,0.003906,0.019531,22.607515,,,
25268843000,0.999084,-0.009949,0.041504,-0.000244,-0.007812,0.003906,0.019531,22.627604,,,
25299351000,0.999084,-0.009949,0.041504,-0.000244,-0.007812,0.003906,-0.019531,22.658112,,,
25309129000,0.999084,-0.009949,0.041504,-0.000244,-0.007812,0.003906,-0.019531,22.66789,,,
25330751000,0.999084,-0.009949,0.041504,-0.000244,-0.007812,0.003906,0.019531,22.689512,,,
25348543000,0.999084,-0.009949,0.041504,-0.000244,-0.007812,0.042969,0.019531,22.707304,,,
25369226000,0.999084,-0.009949,0.041504,-0.000244,0.03125,0.003906,0.019531,22.727987,,,
25388239000,0.999084,-0.009949,0.041504,-0.000244,0.03125,0.003906,-0.019531,22.747,,,
25408239000,0.999084,-0.009949,0.041504,-0.000244,-0.007812,0.042969,-0.019531,22.767,,,
25428723000,0.999084,-0.009949,0.041504,-0.000244,-0.007812,0.003906,0.019531,22.787484,,,
25451703000,0.999084,-0.009949,0.041504,-0.000244,-0.007812,0.003906,0.019531,22.810464,,,
25468685000,0.999084,-0.009949,0.041504,-0.000244,-0.007812,0.003906,0.019531,22.827446,,,
25488122000,0.999084,-0.009949,0.041504,-0.000244,0.070312,0.003906,0.019531,22.846883,,,
25508139000,0.999084,-0.009949,0.041443,-0.000183,0.941406,0.003906,0.132812,22.8669,,,
25538333000,0.999084,-0.010071,0.04126,-0.000183,0.621094,0.042969,-0.019531,22.897094,,,
25548687000,0.999084,-0.010437,0.040955,-0.000244,0.878906,-0.109375,-0.171875,22.907448,,,
25568166000,0.999146,-0.011414,0.040039,-0.00061,0.988281,0.089844,-0.136719,22.926927,,,
25587948000,0.999146,-0.012878,0.038635,-0.001282,0.429688,1.5,-1.207031,22.946709,,,
25618586000,0.999207,-0.013062,0.038391,-0.001648,0.597656,-0.363281,-2.050781,22.977347,,,
25627944000,0.999207,-0.013123,0.038269,-0.00177,-0.171875,0.027344,0.171875,22.986705,,,
25648102000,0.999207,-0.013489,0.037964,-0.002136,-0.253906,-0.164062,0.058594,23.006863,,,
25668032000,0.999207,-0.01355,0.037842,-0.00293,-0.875,-0.039062,-0.171875,23.026793,,,
25687528000,0.999207,-0.013733,0.037537,-0.003052,-0.339844,-0.078125,0.019531,23.046289,,,
25707518000,0.999207,-0.013916,0.037354,-0.002869,-0.230469,-0.195312,-0.25,23.066279,,,
25737985000,0.999207,-0.014038,0.037109,-0.002441,0.210938,0.042969,-0.210938,23.096746,,,
25748135000,0.999207,-0.014282,0.036926,-0.002319,0.136719,-0.1875,0.09375,23.106896,,,
25767287000,0.999207,-0.014465,0.036743,-0.002258,0.097656,0.464844,-0.019531,23.126048,,,
25788131000,0.999207,-0.014587,0.036438,-0.002441,0.242188,-0.101562,-0.066406,23.146892,,,
25808684000,0.999207,-0.014893,0.036194,-0.00238,0.203125,-0.140625,0.394531,23.167445,,,
25833323000,0.999268,-0.015076,0.035889,-0.00238,0.273438,0.175781,-0.066406,23.192084,,,
25847272000,0.999268,-0.015381,0.035461,-0.002319,0.113281,0.097656,0.050781,23.206033,,,
25867292000,0.999268,-0.015625,0.035095,-0.002136,-0.164062,0.257812,-0.257812,23.226053,,,
25897968000,0.999268,-0.01593,0.034607,-0.002075,-0.441406,0.34375,-0.179688,23.256729,,,
25907506000,0.999268,-0.016113,0.034485,-0.002014,-0.332031,-0.191406,-0.027344,23.266267,,,
25927750000,0.999268,-0.016235,0.034058,-0.002014,-0.332031,0.007812,0.050781,23.286511,,,
25946725000,0.999268,-0.016418,0.033875,-0.001953,-0.195312,-0.070312,0.355469,23.305486,,,
25971711000,0.999329,-0.016418,0.033569,-0.002014,-0.195312,-0.175781,0.011719,23.330472,,,
25986761000,0.999329,-0.016663,0.033386,-0.001892,-0.089844,-0.140625,-0.027344,23.345522,,,
26006489000,0.999329,-0.016785,0.033203,-0.001892,0.132812,0.128906,-0.257812,23.36525,,,
26027006000,0.999329,-0.016846,0.03302,-0.001892,-0.171875,0.175781,0.125,23.385767,,,
26050154000,0.999329,-0.017029,0.032837,-0.001892,-0.132812,-0.015625,0.203125,23.408915,,,
26066390000,0.999329,-0.017273,0.032715,-0.001892,-0.105469,-0.015625,-0.144531,23.425151,,,
26087044000,0.999329,-0.01709,0.032471,-0.001953,-0.21875,0.03125,-0.371094,23.445805,,,
26108183000,0.999329,-0.01709,0.032349,-0.002075,-0.226562,0.097656,-0.144531,23.466944,,,
26136495000,0.999329,-0.017151,0.032104,-0.002136,-0.074219,-0.132812,-0.027344,23.495256,,,
26146200000,0.999329,-0.017151,0.032043,-0.002197,0.035156,-0.132812,0.125,23.504961,,,
26166785000,0.999329,-0.017151,0.031799,-0.002258,-0.082031,-0.054688,0.050781,23.525546,,,
26186755000,0.999329,-0.017334,0.031616,-0.002197,-0.011719,0.023438,0.050781,23.545516,,,
26210636000,0.999329,-0.017456,0.031433,-0.002197,0.027344,-0.046875,0.050781,23.569397,,,
26226594000,0.999329,-0.017517,0.031311,-0.002197,0.027344,0.03125,0.050781,23.585355,,,
26246135000,0.999329,-0.017517,0.031189,-0.002258,-0.136719,-0.125,-0.105469,23.604896,,,
26266264000,0.99939,-0.017578,0.031006,-0.002136,-0.097656,-0.085938,-0.027344,23.625025,,,
26286799000,0.99939,-0.017761,0.030884,-0.001953,-0.328125,0.074219,0.011719,23.64556,,,
26316575000,0.99939,-0.017822,0.030579,-0.001831,-0.027344,0.039062,-0.179688,23.675336,,,
26325694000,0.99939,-0.017883,0.030518,-0.00177,-0.105469,-0.039062,0.011719,23.684455,,,
26345806000,0.99939,-0.017822,0.030334,-0.001587,-0.570312,0.0,0.011719,23.704567,,,
26365581000,0.99939,-0.017639,0.03009,-0.001465,-0.304688,0.0,-0.066406,23.724342,,,
26387011000,0.99939,-0.017639,0.029907,-0.001343,-0.3125,0.039062,-0.144531,23.745772,,,
26413730000,0.99939,-0.017639,0.029785,-0.001282,-0.503906,0.113281,-0.066406,23.772491,,,
26426041000,0.99939,-0.0177,0.029785,-0.001282,-0.117188,0.03125,0.035156,23.784802,,,
26445559000,0.99939,-0.0177,0.029785,-0.001282,-0.191406,0.03125,-0.003906,23.80432,,,
26465737000,0.99939,-0.0177,0.029785,-0.001282,0.160156,-0.007812,-0.003906,23.824498,,,
26485412000,0.99939,-0.0177,0.029785,-0.001282,0.121094,-0.007812,-0.003906,23.844173,,,
26517245000,0.99939,-0.0177,0.029785,-0.001282,0.113281,-0.007812,-0.003906,23.876006,,,
26525357000,0.99939,-0.0177,0.029785,-0.001282,0.105469,-0.046875,0.035156,23.884118,,,
26545417000,0.99939,-0.0177,0.029785,-0.001282,0.105469,-0.007812,0.035156,23.904178,,,
26576409000,0.99939,-0.017761,0.029785,-0.001282,0.089844,-0.007812,-0.035156,23.93517,,,
26585430000,0.99939,-0.017761,0.029785,-0.001282,0.128906,-0.007812,-0.003906,23.944191,,,
26605188000,0.99939,-0.017761,0.029785,-0.001282,0.082031,-0.007812,0.003906,23.963949,,,
26626509000,0.99939,-0.0177,0.029785,-0.001282,0.074219,-0.007812,0.003906,23.98527,,,
26650130000,0.99939,-0.0177,0.029724,-0.001282,0.144531,0.0,0.003906,24.008891,,,
26665130000,0.99939,-0.0177,0.029663,-0.00116,0.511719,-0.039062,0.003906,24.023891,,,
26694870000,0.99939,-0.017639,0.029358,-0.000916,0.226562,0.074219,0.042969,24.053631,,,
26708739000,0.99939,-0.017578,0.029297,-0.000671,0.226562,-0.117188,0.078125,24.0675,,,
26725520000,0.99939,-0.0177,0.029114,-0.000305,0.289062,0.074219,0.003906,24.084281,,,
26745168000,0.999451,-0.017822,0.028992,-0.000122,-0.058594,0.0,-0.035156,24.103929,,,
26774839000,0.999451,-0.017944,0.02887,-6.1e-05,-0.21875,0.113281,0.042969,24.1336,,,
26789208000,0.999451,-0.017883,0.028809,-0.000122,-0.140625,-0.039062,-0.074219,24.147969,,,
26804861000,0.999451,-0.017944,0.028748,-6.1e-05,-0.1875,0.046875,-0.074219,24.163622,,,
26835022000,0.999451,-0.018005,0.028625,-6.1e-05,-0.042969,0.0,0.042969,24.193783,,,
26854757000,0.999451,-0.018066,0.028625,-6.1e-05,-0.082031,0.007812,0.003906,24.213518,,,
26864657000,0.999451,-0.018005,0.028564,-6.1e-05,-0.195312,-0.03125,0.003906,24.223418,,,
26894394000,0.999451,-0.018005,0.028564,-6.1e-05,0.027344,0.0,0.003906,24.253155,,,
26904458000,0.999451,-0.018005,0.028564,-6.1e-05,0.066406,0.0,0.003906,24.263219,,,
26928943000,0.999451,-0.018066,0.028564,-6.1e-05,0.066406,0.0,0.003906,24.287704,,,
26944498000,0.999451,-0.018005,0.028564,-6.1e-05,0.066406,-0.03125,0.042969,24.303259,,,
26963964000,0.999451,-0.018066,0.028564,-6.1e-05,0.027344,0.007812,-0.035156,24.322725,,,
26984806000,0.999451,-0.018066,0.028564,-6.1e-05,0.066406,-0.03125,0.042969,24.343567,,,
27004913000,0.999451,-0.018066,0.028564,-6.1e-05,0.027344,0.007812,0.003906,24.363674,,,
27031818000,0.999451,-0.018066,0.028564,-6.1e-05,0.019531,0.007812,0.042969,24.390579,,,
27044134000,0.999451,-0.018066,0.028564,-0.000122,0.019531,0.007812,0.003906,24.402895,,,
27064652000,0.999451,-0.018005,0.028564,-0.000122,0.019531,0.007812,0.003906,24.423413,,,
27093845000,0.999451,-0.018005,0.028564,-0.000122,0.058594,0.007812,0.003906,24.452606,,,
27104082000,0.999451,-0.018005,0.028564,-0.000122,0.019531,0.007812,-0.035156,24.462843,,,
27124604000,0.999451,-0.018005,0.028564,-0.000122,0.019531,0.007812,0.003906,24.483365,,,
27150259000,0.999451,-0.018005,0.028564,-0.000122,0.035156,0.039062,0.011719,24.50902,,,
27164181000,0.999451,-0.018005,0.028564,-0.000122,0.035156,0.0,0.011719,24.522942,,,
27184412000,0.999451,-0.018005,0.028564,-0.000122,0.035156,0.0,0.011719,24.543173,,,
27214314000,0.999451,-0.018005,0.028564,-0.000122,0.027344,-0.039062,0.011719,24.573075,,,
27223970000,0.999451,-0.018066,0.028503,-0.000122,0.027344,0.0,0.011719,24.582731,,,
27244149000,0.999451,-0.018066,0.028564,-0.000122,0.027344,0.0,0.011719,24.60291,,,
27264485000,0.999451,-0.018066,0.028564,-0.000122,0.027344,0.0,0.011719,24.623246,,,
27294757000,0.999451,-0.018066,0.028503,-0.000122,0.019531,0.0,-0.027344,24.653518,,,
27303937000,0.999451,-0.018066,0.028503,-0.000122,0.058594,0.0,0.011719,24.662698,,,
27323947000,0.999451,-0.018066,0.028564,-0.000122,0.019531,0.039062,0.050781,24.682708,,,
27343881000,0.999451,-0.018066,0.028503,-0.000122,0.019531,0.0,0.011719,24.702642,,,
27373443000,0.999451,-0.018127,0.028564,-0.000183,0.011719,0.0,-0.027344,24.732204,,,
27383249000,0.999451,-0.018127,0.028564,-0.000122,0.050781,0.0,0.011719,24.74201,,,
27403839000,0.999451,-0.018127,0.028564,-0.000122,0.011719,0.0,0.050781,24.7626,,,
27433589000,0.999451,-0.018127,0.028503,-0.000122,0.011719,0.0,0.011719,24.79235,,,
27448982000,0.999451,-0.018127,0.028503,-0.000122,0.050781,0.0,0.011719,24.807743,,,
27463753000,0.999451,-0.018127,0.028503,-0.000122,0.003906,0.0,0.011719,24.822514,,,
27483802000,0.999451,-0.018127,0.028503,-0.000122,0.003906,0.0,0.011719,24.842563,,,
27503801000,0.999451,-0.018127,0.028503,-0.000122,0.003906,0.0,0.050781,24.862562,,,
27523801000,0.999451,-0.018127,0.028564,-0.000122,0.042969,0.0,0.011719,24.882562,,,
27553691000,0.999451,-0.018127,0.028564,-0.000122,0.003906,0.0,-0.027344,24.912452,,,
27562805000,0.999451,-0.018127,0.028564,-0.000122,0.003906,0.0,0.050781,24.921566,,,
27583862000,0.999451,-0.018127,0.028564,-0.000122,0.042969,0.0,0.011719,24.942623,,,
27603448000,0.999451,-0.018127,0.028564,-0.000122,0.003906,0.0,-0.035156,24.962209,,,
27633474000,0.999451,-0.018127,0.028564,-0.000183,-0.003906,0.0,0.003906,24.992235,,,
27644223000,0.999451,-0.018127,0.028564,-0.000183,0.035156,0.0,0.042969,25.002984,,,
27663485000,0.999451,-0.018127,0.028564,-0.000183,-0.003906,0.0,-0.035156,25.022246,,,
27692568000,0.999451,-0.018127,0.028564,-0.000183,-0.003906,0.0,0.003906,25.051329,,,
27708992000,0.999451,-0.018127,0.028564,-0.000183,0.035156,0.0,0.042969,25.067753,,,
27723059000,0.999451,-0.018127,0.028503,-0.000183,-0.003906,0.0,0.003906,25.08182,,,
27744834000,0.999451,-0.018127,0.028564,-0.000183,-0.003906,0.0,0.003906,25.103595,,,
27763468000,0.999451,-0.018127,0.028564,-0.000183,0.035156,0.0,0.003906,25.122229,,,
27783073000,0.999451,-0.018127,0.028564,-0.000183,-0.003906,0.0,0.003906,25.141834,,,
27803478000,0.999451,-0.018127,0.028564,-0.000183,0.035156,0.0,0.003906,25.162239,,,
27823581000,0.999451,-0.018127,0.028564,-0.000183,-0.003906,0.0,0.003906,25.182342,,,
27843071000,0.999451,-0.018127,0.028564,-0.000183,0.035156,0.0,-0.035156,25.201832,,,
27863447000,0.999451,-0.018127,0.028564,-0.000183,-0.003906,0.0,0.003906,25.222208,,,
27883430000,0.999451,-0.018127,0.028564,-0.000183,-0.042969,0.0,0.003906,25.242191,,,
27912004000,0.999451,-0.018188,0.028564,-0.000183,0.035156,0.0,0.003906,25.270765,,,
27922206000,0.999451,-0.018188,0.028564,-0.000183,0.035156,0.0,0.003906,25.280967,,,
27943472000,0.999451,-0.018127,0.028564,-0.000183,-0.003906,0.0,0.003906,25.302233,,,
27963633000,0.999451,-0.018188,0.028564,-0.000183,-0.003906,0.0,0.003906,25.322394,,,
27991593000,0.999451,-0.018188,0.028564,-0.000183,-0.003906,0.0,0.003906,25.350354,,,
28002166000,0.999451,-0.018127,0.028564,-0.000122,-0.003906,0.0,0.003906,25.360927,,,
28031428000,0.999451,-0.018127,0.028564,-0.000183,-0.003906,0.0,0.003906,25.390189,,,
28054040000,0.999451,-0.018188,0.028564,-0.000183,-0.003906,0.0,0.003906,25.412801,,,
28072285000,0.999451,-0.018127,0.028564,-0.000183,0.035156,0.0,0.003906,25.431046,,,
28082187000,0.999451,-0.018127,0.028564,-0.000183,0.035156,0.0,0.003906,25.440948,,,
28111773000,0.999451,-0.018127,0.028564,-0.000183,-0.003906,0.0,0.003906,25.470534,,,
28131405000,0.999451,-0.018127,0.028564,-0.000183,0.035156,0.0,0.003906,25.490166,,,
28151708000,0.999451,-0.018127,0.028564,-0.000183,-0.003906,0.0,0.003906,25.510469,,,
28177684000,0.999451,-0.018127,0.028564,-0.000183,-0.003906,0.0,0.003906,25.536445,,,
28191381000,0.999451,-0.018127,0.028564,-0.000183,-0.003906,0.0,0.003906,25.550142,,,
28211347000,0.999451,-0.018127,0.028564,-0.000183,0.035156,0.0,0.003906,25.570108,,,
28231426000,0.999451,-0.018066,0.028564,-0.000183,0.035156,0.0,0.003906,25.590187,,,
28253206000,0.999451,-0.018066,0.028564,-0.000183,0.035156,0.0,0.003906,25.611967,,,
28271405000,0.999451,-0.018066,0.028564,-0.000183,0.035156,0.0,0.003906,25.630166,,,
28290457000,0.999451,-0.018066,0.028564,-0.000183,-0.011719,0.0,0.003906,25.649218,,,
28312296000,0.999451,-0.018066,0.028564,-0.000183,-0.011719,0.0,0.003906,25.671057,,,
28333271000,0.999451,-0.018066,0.028564,-0.000183,-0.011719,0.039062,0.003906,25.692032,,,
28350594000,0.999451,-0.018066,0.028564,-0.000183,-0.011719,0.0,0.003906,25.709355,,,
28370830000,0.999451,-0.018066,0.028564,-0.000183,-0.003906,0.0,0.003906,25.729591,,,
28394200000,0.999451,-0.018066,0.028564,-0.000183,-0.003906,0.0,0.003906,25.752961,,,
28411043000,0.999451,-0.018066,0.028564,-0.000183,-0.003906,-0.039062,0.003906,25.769804,,,
28430414000,0.999451,-0.018066,0.028564,-0.000183,-0.003906,0.0,0.003906,25.789175,,,
28451152000,0.999451,-0.018066,0.028564,-0.000183,-0.003906,0.0,0.003906,25.809913,,,
28480035000,0.999451,-0.018066,0.028564,-0.000183,0.035156,0.0,0.003906,25.838796,,,
28495653000,0.999451,-0.018066,0.028564,-0.000183,-0.003906,0.0,0.003906,25.854414,,,
28509955000,0.999451,-0.018066,0.028564,-0.000183,-0.003906,0.0,0.003906,25.868716,,,
28530315000,0.999451,-0.018066,0.028564,-0.000183,0.035156,0.0,0.003906,25.889076,,,
28549969000,0.999451,-0.018066,0.028564,-0.000183,-0.003906,0.0,0.003906,25.90873,,,
28573340000,0.999451,-0.018066,0.028564,-0.000183,-0.003906,0.039062,0.003906,25.932101,,,
28590953000,0.999451,-0.018066,0.028564,-0.000183,-0.003906,0.0,0.003906,25.949714,,,
28610139000,0.999451,-0.018066,0.028564,-0.000183,0.035156,0.0,0.042969,25.9689,,,
28629640000,0.999451,-0.018066,0.028564,-0.000183,-0.003906,-0.039062,0.003906,25.988401,,,
28649778000,0.999451,-0.018066,0.028564,-0.000183,-0.003906,0.0,0.003906,26.008539,,,
28675970000,0.999451,-0.018066,0.028564,-0.000183,0.035156,0.0,0.003906,26.034731,,,
28689924000,0.999451,-0.018066,0.028564,-0.000183,0.035156,0.0,0.003906,26.048685,,,
28712177000,0.999451,-0.018066,0.028564,-0.000183,-0.003906,0.0,0.003906,26.070938,,,
28729895000,0.999451,-0.018066,0.028564,-0.000183,-0.003906,0.0,0.003906,26.088656,,,
28749912000,0.999451,-0.018066,0.028564,-0.000183,-0.003906,0.0,0.003906,26.108673,,,
28769935000,0.999451,-0.018066,0.028564,-0.000183,0.035156,0.0,0.003906,26.128696,,,
28789699000,0.999451,-0.018066,0.028564,-0.000183,-0.003906,0.0,0.003906,26.14846,,,
28809569000,0.999451,-0.018066,0.028564,-0.000183,-0.003906,0.0,0.042969,26.16833,,,
28830147000,0.999451,-0.018066,0.028564,-0.000183,-0.003906,0.0,0.003906,26.188908,,,
28850620000,0.999451,-0.018066,0.028564,-0.000183,-0.003906,0.0,0.003906,26.209381,,,
28872823000,0.999451,-0.018066,0.028564,-0.000183,0.035156,0.0,0.003906,26.231584,,,
28889459000,0.999451,-0.018066,0.028564,-0.000183,-0.003906,0.0,0.003906,26.24822,,,
28909190000,0.999451,-0.018066,0.028564,-0.000183,0.035156,0.0,0.003906,26.267951,,,
28929196000,0.999451,-0.018066,0.028564,-0.000183,-0.003906,0.0,0.003906,26.287957,,,
28952570000,0.999451,-0.018066,0.028564,-0.000183,-0.003906,-0.039062,0.003906,26.311331,,,
28968847000,0.999451,-0.018066,0.028564,-0.000183,-0.003906,0.0,0.003906,26.327608,,,
28988720000,0.999451,-0.018066,0.028564,-0.000183,0.035156,0.0,0.003906,26.347481,,,
29009632000,0.999451,-0.018066,0.028564,-0.000183,-0.003906,0.0,0.003906,26.368393,,,
29029088000,0.999451,-0.018066,0.028564,-0.000183,0.035156,0.0,0.003906,26.387849,,,
29048633000,0.999451,-0.018066,0.028564,-0.000183,-0.003906,0.0,0.042969,26.407394,,,
29069211000,0.999451,-0.018066,0.028564,-0.000183,0.035156,0.0,0.003906,26.427972,,,
29093610000,0.999451,-0.018066,0.028564,-0.000183,-0.003906,0.0,0.003906,26.452371,,,
29109584000,0.999451,-0.018066,0.028564,-0.000183,-0.003906,0.0,0.003906,26.468345,,,
29128711000,0.999451,-0.018066,0.028564,-0.000183,-0.003906,0.0,-0.035156,26.487472,,,
29148718000,0.999451,-0.018066,0.028564,-0.000183,-0.003906,0.0,0.003906,26.507479,,,
29173491000,0.999451,-0.018066,0.028564,-0.000183,-0.003906,0.0,0.003906,26.532252,,,
29188415000,0.999451,-0.018066,0.028564,-0.000183,-0.003906,0.0,0.003906,26.547176,,,
29208452000,0.999451,-0.018066,0.028564,-0.000183,-0.003906,0.0,-0.035156,26.567213,,,
29227910000,0.999451,-0.018066,0.028564,-0.000183,-0.003906,0.0,0.003906,26.586671,,,
29252800000,0.999451,-0.018066,0.028564,-0.000183,-0.003906,0.0,0.003906,26.611561,,,
29268324000,0.999451,-0.018066,0.028564,-0.000183,0.035156,0.0,-0.035156,26.627085,,,
29287493000,0.999451,-0.018066,0.028564,-0.000183,-0.003906,0.0,0.003906,26.646254,,,
29312574000,0.999451,-0.018066,0.028564,-0.000183,-0.003906,0.0,0.011719,26.671335,,,
29327603000,0.999451,-0.018066,0.028564,-0.000183,-0.003906,0.0,0.050781,26.686364,,,
29347598000,0.999451,-0.018066,0.028564,-0.000183,0.035156,0.0,0.011719,26.706359,,,
29368748000,0.999451,-0.018066,0.028564,-0.000183,-0.003906,0.0,0.011719,26.727509,,,
29397882000,0.999451,-0.018066,0.028564,-0.000183,-0.003906,0.0,0.011719,26.756643,,,
29407505000,0.999451,-0.018066,0.028564,-0.000183,-0.003906,0.0,0.011719,26.766266,,,
29428076000,0.999451,-0.018066,0.028564,-0.000183,-0.003906,0.0,0.011719,26.786837,,,
29447365000,0.999451,-0.018066,0.028564,-0.000183,-0.003906,0.0,0.011719,26.806126,,,
29467768000,0.999451,-0.018066,0.028564,-0.000183,-0.003906,0.0,0.011719,26.826529,,,
29492986000,0.999451,-0.018066,0.028564,-0.000183,0.035156,0.0,0.003906,26.851747,,,
29507629000,0.999451,-0.018066,0.028564,-0.000183,-0.003906,0.0,0.003906,26.86639,,,
29527140000,0.999451,-0.018066,0.028564,-0.000183,-0.003906,0.0,0.042969,26.885901,,,
29547364000,0.999451,-0.018066,0.028564,-0.000183,0.035156,0.0,0.003906,26.906125,,,
29577356000,0.999451,-0.018066,0.028564,-0.000183,0.035156,0.0,0.003906,26.936117,,,
29594547000,0.999451,-0.018066,0.028564,-0.000183,-0.003906,0.0,0.042969,26.953308,,,
29606840000,0.999451,-0.018066,0.028564,-0.000183,-0.003906,0.0,0.003906,26.965601,,,
29628101000,0.999451,-0.018066,0.028564,-0.000183,-0.011719,0.0,0.003906,26.986862,,,
29648142000,0.999451,-0.018066,0.028564,-0.000183,0.027344,-0.039062,0.042969,27.006903,,,
29670871000,0.999451,-0.018066,0.028564,-0.000183,-0.011719,-0.039062,0.003906,27.029632,,,
29687580000,0.999451,-0.018066,0.028564,-0.000183,-0.011719,0.0,0.042969,27.046341,,,
29706831000,0.999451,-0.018066,0.028564,-0.000183,0.027344,-0.03125,0.003906,27.065592,,,
29727190000,0.999451,-0.018066,0.028564,-0.000183,0.027344,0.007812,0.003906,27.085951,,,
29756806000,0.999451,-0.018066,0.028564,-0.000183,-0.011719,0.007812,0.003906,27.115567,,,
29772048000,0.999451,-0.018066,0.028564,-0.000183,-0.003906,0.007812,0.003906,27.130809,,,
29786897000,0.999451,-0.018066,0.028564,-0.000183,-0.003906,0.007812,0.042969,27.145658,,,
29808017000,0.999451,-0.018066,0.028564,-0.000183,-0.003906,0.007812,0.003906,27.166778,,,
29831726000,0.999451,-0.018066,0.028564,-0.000183,0.035156,0.007812,0.003906,27.190487,,,
29847281000,0.999451,-0.018066,0.028564,-0.000183,-0.003906,0.007812,0.003906,27.206042,,,
29866845000,0.999451,-0.018066,0.028564,-0.000183,-0.003906,0.007812,-0.035156,27.225606,,,
29891085000,0.999451,-0.018066,0.028564,-0.000183,-0.003906,0.007812,0.003906,27.249846,,,
29906724000,0.999451,-0.018066,0.028564,-0.000183,-0.003906,0.007812,0.003906,27.265485,,,
29926147000,0.999451,-0.018066,0.028564,-0.000183,0.035156,0.007812,0.003906,27.284908,,,
29952169000,0.999451,-0.018066,0.028564,-0.000183,-0.003906,0.007812,0.003906,27.31093,,,
29966254000,0.999451,-0.018066,0.028564,-0.000183,-0.003906,0.007812,0.003906,27.325015,,,
29986254000,0.999451,-0.018066,0.028564,-0.000183,-0.003906,0.039062,0.003906,27.345015,,,
30006283000,0.999451,-0.018066,0.028564,-0.000183,-0.003906,0.0,0.003906,27.365044,,,
30030050000,0.999451,-0.018066,0.028564,-0.000183,0.339844,0.0,0.003906,27.388811,,,
30046126000,0.999451,-0.017944,0.028381,-0.000183,0.890625,-0.191406,-0.074219,27.404887,,,
30066301000,0.999451,-0.018066,0.028198,-0.000122,0.601562,-0.007812,0.078125,27.425062,,,
