timestamp_ns,qw,qx,qy,qz,ax,ay,az
2692681000,0.999207,-0.005981,0.039246,-0.000183,0.000000,0.003906,0.003906
2704986000,0.999207,-0.005981,0.039246,-0.000183,0.000000,0.003906,0.003906
2722792000,0.999207,-0.005920,0.039246,-0.000244,0.000000,0.003906,0.003906
2733088000,0.999207,-0.005920,0.039307,-0.000244,-0.031250,0.003906,0.003906
2743627000,0.999207,-0.005920,0.039246,-0.000244,0.007812,0.003906,0.042969
2753179000,0.999207,-0.005920,0.039246,-0.000244,-0.031250,0.003906,0.003906
2762977000,0.999207,-0.005920,0.039246,-0.000244,-0.031250,0.003906,0.003906
2773406000,0.999207,-0.005920,0.039246,-0.000244,-0.031250,0.003906,0.003906
2782921000,0.999207,-0.005920,0.039246,-0.000244,0.007812,0.003906,0.035156
2793108000,0.999207,-0.005920,0.039307,-0.000244,0.007812,0.003906,-0.003906
2803135000,0.999207,-0.005981,0.039307,-0.000244,0.007812,0.003906,-0.003906
2813194000,0.999207,-0.005920,0.039307,-0.000244,0.007812,0.003906,-0.003906
2823244000,0.999207,-0.005981,0.039307,-0.000244,0.007812,0.003906,-0.003906
2842583000,0.999207,-0.005920,0.039307,-0.000244,0.007812,0.003906,-0.003906
2862774000,0.999207,-0.005920,0.039307,-0.000244,0.007812,0.003906,-0.003906
2882811000,0.999207,-0.005920,0.039307,-0.000183,0.007812,0.003906,-0.003906
2902770000,0.999207,-0.005981,0.039246,-0.000183,-0.031250,0.003906,-0.003906
2933222000,0.999207,-0.005920,0.039246,-0.000244,0.007812,0.003906,0.035156
2942651000,0.999207,-0.005920,0.039246,-0.000244,-0.031250,0.039062,-0.003906
2962941000,0.999207,-0.005981,0.039246,-0.000244,0.007812,0.003906,-0.003906
2982368000,0.999207,-0.005981,0.039246,-0.000244,-0.031250,0.003906,-0.003906
3008739000,0.999207,-0.005981,0.039246,-0.000244,0.007812,0.003906,-0.003906
3022572000,0.999207,-0.005981,0.039246,-0.000244,-0.031250,0.003906,-0.003906
3042609000,0.999207,-0.005981,0.039246,-0.000244,0.015625,0.003906,0.035156
3072427000,0.999207,-0.006042,0.039185,-0.000244,-0.023438,0.003906,-0.003906
3082446000,0.999207,-0.006042,0.039185,-0.000244,-0.023438,0.003906,0.035156
3102448000,0.999207,-0.006042,0.039185,-0.000244,0.015625,0.039062,0.035156
3122234000,0.999207,-0.006042,0.039185,-0.000183,0.015625,0.003906,0.035156
3152212000,0.999207,-0.006042,0.039185,-0.000244,0.015625,0.003906,-0.003906
3166571000,0.999207,-0.005981,0.039185,-0.000244,0.015625,0.003906,-0.003906
3181904000,0.999207,-0.005981,0.039185,-0.000244,-0.023438,0.003906,-0.003906
3201871000,0.999207,-0.006042,0.039185,-0.000244,0.015625,-0.035156,0.027344
3227507000,0.999207,-0.006042,0.039185,-0.000244,-0.023438,0.003906,0.027344
3242003000,0.999207,-0.006042,0.039185,-0.000244,0.015625,0.003906,0.027344
3265273000,0.999207,-0.006042,0.039185,-0.000244,0.015625,0.003906,0.027344
3282093000,0.999207,-0.006042,0.039124,-0.000305,0.015625,0.003906,-0.011719
3301804000,0.999207,-0.006042,0.039124,-0.000305,0.015625,0.003906,0.027344
3321210000,0.999207,-0.006042,0.039124,-0.000244,-0.023438,0.003906,-0.011719
3342816000,0.999207,-0.006042,0.039124,-0.000244,0.015625,0.003906,0.027344
3366669000,0.999207,-0.006042,0.039124,-0.000244,-0.023438,0.003906,-0.011719
3381190000,0.999207,-0.006104,0.039124,-0.000244,0.015625,0.003906,-0.011719
3401591000,0.999207,-0.006042,0.039124,-0.000244,0.015625,0.003906,-0.011719
3427353000,0.999207,-0.006042,0.039124,-0.000244,-0.023438,0.039062,-0.011719
3440857000,0.999207,-0.006042,0.039124,-0.000244,-0.023438,0.003906,0.027344
3461375000,0.999207,-0.006042,0.039124,-0.000244,0.015625,0.003906,0.027344
3486137000,0.999207,-0.005981,0.039124,-0.000244,-0.023438,0.003906,-0.011719
3501039000,0.999207,-0.005981,0.039124,-0.000244,-0.023438,0.039062,-0.011719
3522699000,0.999207,-0.005981,0.039124,-0.000244,0.015625,0.003906,0.027344
3546670000,0.999207,-0.006042,0.039124,-0.000244,0.015625,0.003906,-0.011719
3560434000,0.999207,-0.006042,0.039124,-0.000244,-0.023438,0.003906,-0.011719
3580587000,0.999207,-0.006042,0.039124,-0.000244,-0.023438,0.003906,0.027344
3605077000,0.999207,-0.006042,0.039124,-0.000244,0.015625,0.003906,0.027344
3620330000,0.999207,-0.006042,0.039124,-0.000244,0.015625,0.003906,0.027344
3650974000,0.999207,-0.006042,0.039124,-0.000244,-0.023438,0.003906,-0.011719
3659966000,0.999207,-0.006042,0.039124,-0.000244,0.015625,0.003906,-0.011719
3680051000,0.999207,-0.006042,0.039124,-0.000244,0.015625,0.003906,0.027344
3710448000,0.999207,-0.006042,0.039124,-0.000244,0.015625,0.003906,0.027344
3720498000,0.999207,-0.006042,0.039124,-0.000244,0.015625,0.003906,0.027344
3740895000,0.999207,-0.006042,0.039124,-0.000244,0.015625,0.039062,0.027344
3765948000,0.999207,-0.006042,0.039124,-0.000244,0.015625,0.003906,-0.011719
3779768000,0.999207,-0.006042,0.039124,-0.000244,-0.023438,0.003906,-0.011719
3800004000,0.999207,-0.006042,0.039124,-0.000244,0.015625,0.003906,0.027344
3821030000,0.999207,-0.006042,0.039124,-0.000244,0.015625,0.003906,0.027344
3846097000,0.999207,-0.006042,0.039124,-0.000244,-0.023438,0.003906,0.027344
3861674000,0.999207,-0.006042,0.039124,-0.000244,0.015625,0.003906,0.027344
3885320000,0.999207,-0.006042,0.039124,-0.000244,-0.031250,0.003906,0.019531
3899826000,0.999207,-0.006042,0.039124,-0.000244,-0.031250,0.039062,-0.019531
3919918000,0.999207,-0.006042,0.039124,-0.000244,0.015625,0.003906,0.019531
3946627000,0.999207,-0.006042,0.039124,-0.000244,0.015625,0.003906,0.019531
3959697000,0.999207,-0.006042,0.039124,-0.000244,0.007812,0.003906,0.019531
3979391000,0.999207,-0.006042,0.039124,-0.000244,-0.031250,0.003906,0.019531
4006561000,0.999207,-0.006042,0.039124,-0.000244,0.007812,0.003906,0.019531
4019784000,0.999207,-0.006042,0.039124,-0.000244,-0.031250,0.003906,0.019531
4041440000,0.999207,-0.006042,0.039124,-0.000244,-0.023438,0.039062,-0.019531
4069512000,0.999207,-0.006042,0.039124,-0.000244,0.015625,0.003906,-0.019531
4079150000,0.999207,-0.006042,0.039124,-0.000244,0.015625,0.039062,-0.019531
4099886000,0.999207,-0.006042,0.039124,-0.000244,0.007812,0.003906,0.019531
4125692000,0.999207,-0.006042,0.039124,-0.000244,0.007812,0.003906,0.019531
4138966000,0.999207,-0.006042,0.039124,-0.000244,0.007812,0.003906,-0.019531
4159389000,0.999207,-0.006042,0.039124,-0.000244,0.007812,0.003906,0.019531
4189157000,0.999207,-0.006042,0.039124,-0.000244,0.007812,0.003906,0.019531
4198550000,0.999207,-0.006042,0.039124,-0.000244,0.007812,0.003906,0.019531
4228691000,0.999207,-0.006042,0.039124,-0.000244,0.007812,0.003906,0.019531
4238497000,0.999207,-0.006042,0.039124,-0.000244,-0.031250,0.003906,0.019531
4258383000,0.999207,-0.006042,0.039124,-0.000244,0.007812,0.003906,0.019531
4278328000,0.999207,-0.006042,0.039124,-0.000244,-0.031250,0.003906,0.019531
4308823000,0.999207,-0.006042,0.039124,-0.000244,-0.031250,0.003906,0.019531
4318276000,0.999207,-0.006042,0.039124,-0.000244,0.007812,0.039062,0.019531
4339593000,0.999207,-0.006042,0.039124,-0.000244,-0.023438,0.003906,-0.019531
4368408000,0.999207,-0.006042,0.039124,-0.000244,0.015625,0.003906,0.019531
4379275000,0.999207,-0.006042,0.039124,-0.000244,0.015625,0.003906,0.019531
4398393000,0.999207,-0.006042,0.039124,-0.000244,0.054688,0.003906,0.019531
4419522000,0.999207,-0.006042,0.039124,-0.000244,0.015625,0.003906,0.019531
4438221000,0.999207,-0.006042,0.039124,-0.000244,0.015625,-0.003906,0.019531
4458056000,0.999207,-0.006042,0.039124,-0.000244,0.007812,-0.003906,0.019531
4488224000,0.999207,-0.006042,0.039124,-0.000244,0.007812,-0.003906,-0.019531
4497831000,0.999207,-0.006042,0.039124,-0.000244,0.007812,0.003906,-0.019531
4518273000,0.999207,-0.006042,0.039124,-0.000244,-0.031250,0.003906,0.019531
4548364000,0.999207,-0.006042,0.039124,-0.000244,0.007812,0.003906,0.019531
4558123000,0.999207,-0.006042,0.039124,-0.000244,0.007812,0.003906,0.019531
4577977000,0.999207,-0.006042,0.039124,-0.000244,0.007812,0.003906,0.011719
4608156000,0.999207,-0.006042,0.039124,-0.000244,0.007812,0.003906,-0.027344
4617781000,0.999207,-0.006042,0.039124,-0.000244,-0.031250,0.003906,0.011719
4639475000,0.999207,-0.006042,0.039124,-0.000244,0.007812,0.003906,0.011719
4660329000,0.999207,-0.006042,0.039124,-0.000244,-0.031250,0.003906,0.011719
4677643000,0.999207,-0.006042,0.039124,-0.000244,-0.031250,0.003906,0.011719
4698178000,0.999207,-0.006042,0.039124,-0.000244,0.007812,0.003906,-0.019531
4717636000,0.999207,-0.006042,0.039124,-0.000244,0.007812,0.003906,0.019531
4744120000,0.999207,-0.006042,0.039124,-0.000244,0.007812,0.003906,0.019531
4771166000,0.999207,-0.006042,0.039124,-0.000244,0.007812,0.003906,0.019531
4787046000,0.999207,-0.006042,0.039124,-0.000244,-0.031250,0.003906,0.019531
4801884000,0.999207,-0.006042,0.039124,-0.000244,0.007812,0.003906,0.011719
4817360000,0.999207,-0.006042,0.039124,-0.000244,0.007812,0.003906,-0.027344
4837290000,0.999207,-0.006042,0.039124,-0.000244,0.007812,0.003906,0.011719
4859815000,0.999207,-0.006042,0.039124,-0.000244,0.046875,0.039062,0.011719
4877211000,0.999207,-0.006042,0.039124,-0.000244,0.007812,-0.003906,-0.027344
4907080000,0.999207,-0.006042,0.039124,-0.000244,-0.031250,-0.003906,0.011719
4917091000,0.999207,-0.006042,0.039124,-0.000244,0.007812,-0.003906,-0.027344
4944035000,0.999207,-0.006042,0.039124,-0.000244,-0.031250,-0.003906,0.011719
4957183000,0.999207,-0.006042,0.039124,-0.000244,0.007812,-0.003906,0.050781
4977885000,0.999207,-0.006042,0.039124,-0.000244,-0.031250,-0.003906,0.011719
5003931000,0.999207,-0.006042,0.039124,-0.000244,0.007812,-0.003906,0.011719
5017299000,0.999207,-0.006042,0.039124,-0.000244,-0.031250,-0.003906,-0.027344
5037267000,0.999207,-0.006042,0.039124,-0.000244,-0.031250,0.003906,0.011719
5065908000,0.999207,-0.006042,0.039124,-0.000244,0.007812,0.003906,0.011719
5076588000,0.999207,-0.006042,0.039124,-0.000244,-0.031250,0.003906,0.011719
5097145000,0.999207,-0.006042,0.039124,-0.000244,-0.031250,0.003906,0.011719
5118065000,0.999207,-0.006042,0.039124,-0.000244,0.007812,0.003906,-0.027344
5146653000,0.999207,-0.006042,0.039124,-0.000244,0.015625,0.003906,-0.027344
5157582000,0.999207,-0.006042,0.039124,-0.000244,0.015625,0.003906,0.011719
5177086000,0.999207,-0.006042,0.039124,-0.000244,-0.023438,0.003906,0.011719
5206506000,0.999207,-0.006042,0.039124,-0.000244,0.015625,0.003906,0.011719
5216100000,0.999207,-0.006042,0.039124,-0.000244,0.015625,0.003906,0.011719
5246361000,0.999207,-0.006042,0.039124,-0.000244,0.015625,0.003906,0.011719
5266291000,0.999207,-0.006042,0.039124,-0.000244,-0.023438,0.003906,-0.027344
5276348000,0.999207,-0.006042,0.039124,-0.000244,0.015625,0.003906,-0.027344
5297057000,0.999207,-0.006042,0.039124,-0.000244,0.015625,-0.035156,0.011719
5319165000,0.999207,-0.006042,0.039124,-0.000244,0.015625,0.003906,0.011719
5336556000,0.999207,-0.006042,0.039124,-0.000244,-0.023438,0.003906,0.011719
5356693000,0.999207,-0.006042,0.039124,-0.000244,-0.023438,0.039062,0.011719
5377906000,0.999207,-0.006042,0.039124,-0.000244,-0.023438,-0.035156,-0.027344
5402634000,0.999207,-0.006042,0.039124,-0.000244,-0.023438,0.003906,0.011719
5416798000,0.999207,-0.006042,0.039124,-0.000244,0.015625,0.003906,0.011719
5436918000,0.999207,-0.006042,0.039124,-0.000244,0.015625,0.003906,0.011719
5465461000,0.999207,-0.006042,0.039124,-0.000244,0.015625,0.003906,0.011719
5485518000,0.999207,-0.006042,0.039124,-0.000244,0.015625,0.003906,0.011719
5495290000,0.999207,-0.006042,0.039124,-0.000244,0.015625,0.003906,0.011719
5516703000,0.999207,-0.006042,0.039124,-0.000244,0.015625,0.003906,0.011719
5541821000,0.999207,-0.006042,0.039124,-0.000244,0.015625,0.003906,0.011719
5556231000,0.999207,-0.006042,0.039124,-0.000244,0.015625,0.003906,-0.027344
5585232000,0.999207,-0.006042,0.039124,-0.000244,0.015625,0.003906,0.011719
5595515000,0.999207,-0.006042,0.039124,-0.000244,0.015625,0.003906,-0.027344
5616692000,0.999207,-0.006042,0.039124,-0.000244,-0.023438,0.003906,-0.027344
5645069000,0.999207,-0.006042,0.039124,-0.000244,0.015625,0.003906,0.011719
5655327000,0.999207,-0.006042,0.039124,-0.000244,-0.023438,0.003906,0.011719
5684661000,0.999207,-0.006042,0.039124,-0.000244,-0.023438,0.003906,0.011719
5696470000,0.999207,-0.006042,0.039124,-0.000244,0.015625,0.003906,0.011719
5724790000,0.999207,-0.006042,0.039124,-0.000244,-0.023438,0.003906,0.011719
5745175000,0.999207,-0.006042,0.039124,-0.000244,-0.023438,0.003906,-0.027344
5761813000,0.999207,-0.006042,0.039124,-0.000244,0.015625,0.003906,-0.027344
5777057000,0.999207,-0.006042,0.039124,-0.000244,0.015625,0.003906,-0.027344
5805034000,0.999207,-0.006042,0.039124,-0.000244,0.015625,0.003906,-0.027344
5824762000,0.999207,-0.006042,0.039124,-0.000244,0.015625,0.003906,0.011719
5835233000,0.999207,-0.006042,0.039124,-0.000244,-0.023438,0.003906,0.011719
5864573000,0.999207,-0.006042,0.039124,-0.000244,0.015625,0.003906,0.011719
5886597000,0.999207,-0.006042,0.039124,-0.000244,0.015625,0.003906,0.011719
5904586000,0.999207,-0.006042,0.039124,-0.000244,0.015625,0.003906,-0.027344
5924180000,0.999207,-0.006042,0.039124,-0.000244,-0.023438,0.003906,0.011719
5935370000,0.999207,-0.006042,0.039124,-0.000244,-0.023438,-0.035156,0.011719
5964102000,0.999207,-0.006042,0.039124,-0.000244,0.015625,0.003906,0.011719
5986249000,0.999207,-0.006042,0.039124,-0.000244,-0.023438,0.003906,-0.027344
6004307000,0.999207,-0.006042,0.039124,-0.000244,0.054688,0.039062,0.011719
6029735000,0.999207,-0.006042,0.039124,-0.000244,0.015625,0.003906,0.011719
6044183000,0.999207,-0.006042,0.039124,-0.000244,-0.023438,0.039062,0.011719
6063543000,0.999207,-0.006042,0.039124,-0.000244,0.007812,0.003906,0.011719
6083985000,0.999207,-0.006042,0.039124,-0.000244,-0.031250,0.003906,0.011719
6107250000,0.999207,-0.006042,0.039124,-0.000244,-0.023438,0.003906,0.011719
6124092000,0.999207,-0.006042,0.039124,-0.000244,-0.023438,0.003906,0.011719
6146030000,0.999207,-0.006042,0.039124,-0.000305,0.015625,0.003906,0.011719
6164046000,0.999207,-0.006042,0.039124,-0.000244,-0.023438,0.039062,-0.027344
6183902000,0.999207,-0.006042,0.039124,-0.000305,0.015625,0.039062,-0.027344
6204055000,0.999207,-0.006042,0.039185,-0.000305,-0.023438,0.003906,-0.027344
6223620000,0.999207,-0.006042,0.039185,-0.000305,0.015625,0.003906,-0.027344
6243578000,0.999207,-0.006042,0.039185,-0.000305,-0.023438,0.031250,0.011719
6263480000,0.999207,-0.006042,0.039185,-0.000305,0.015625,-0.003906,-0.027344
6283637000,0.999207,-0.006042,0.039185,-0.000305,-0.023438,-0.003906,0.011719
6303497000,0.999207,-0.006042,0.039185,-0.000305,0.015625,-0.003906,-0.027344
6323465000,0.999207,-0.006042,0.039185,-0.000305,-0.023438,0.003906,0.011719
6344302000,0.999207,-0.006042,0.039185,-0.000305,0.015625,0.003906,-0.027344
6362858000,0.999207,-0.006042,0.039185,-0.000305,0.015625,0.003906,0.011719
6383199000,0.999207,-0.005981,0.039185,-0.000305,0.015625,0.003906,0.011719
6407779000,0.999207,-0.005981,0.039185,-0.000305,0.007812,0.039062,-0.027344
6423994000,0.999207,-0.005981,0.039185,-0.000305,0.007812,0.003906,0.011719
6443382000,0.999207,-0.005981,0.039185,-0.000305,-0.031250,0.003906,0.011719
6463773000,0.999207,-0.005981,0.039185,-0.000305,-0.031250,0.003906,0.011719
6488527000,0.999207,-0.005981,0.039185,-0.000305,0.007812,0.003906,0.011719
6503335000,0.999207,-0.006042,0.039185,-0.000305,0.007812,0.003906,-0.027344
6523019000,0.999207,-0.006042,0.039185,-0.000244,0.007812,0.003906,0.011719
6549723000,0.999207,-0.005981,0.039185,-0.000305,0.007812,0.003906,0.011719
6563132000,0.999207,-0.005981,0.039185,-0.000244,0.007812,0.003906,0.011719
6583148000,0.999207,-0.005981,0.039185,-0.000244,0.007812,0.003906,-0.027344
6612999000,0.999207,-0.005981,0.039185,-0.000244,0.007812,0.003906,0.011719
6629354000,0.999207,-0.005981,0.039185,-0.000305,0.007812,0.003906,-0.027344
6642811000,0.999207,-0.005981,0.039185,-0.000305,0.007812,0.003906,0.011719
6662220000,0.999207,-0.005981,0.039185,-0.000305,-0.031250,0.003906,0.011719
6683160000,0.999207,-0.005981,0.039185,-0.000305,0.007812,0.003906,0.011719
6704872000,0.999207,-0.005981,0.039185,-0.000305,0.007812,-0.003906,-0.027344
6722323000,0.999207,-0.005981,0.039185,-0.000305,-0.031250,0.031250,0.011719
6742803000,0.999207,-0.005981,0.039185,-0.000305,0.007812,-0.003906,0.011719
6762617000,0.999207,-0.005981,0.039185,-0.000305,0.007812,-0.003906,0.011719
6788833000,0.999207,-0.005981,0.039185,-0.000305,0.007812,-0.003906,-0.027344
6802324000,0.999207,-0.005981,0.039185,-0.000305,0.007812,-0.003906,0.011719
6821826000,0.999207,-0.005981,0.039124,-0.000305,0.007812,-0.003906,-0.027344
6842084000,0.999207,-0.005981,0.039185,-0.000305,0.007812,-0.003906,-0.027344
6867831000,0.999207,-0.005981,0.039185,-0.000305,0.007812,-0.003906,0.011719
6882350000,0.999207,-0.005981,0.039185,-0.000305,0.007812,-0.003906,0.011719
6902239000,0.999207,-0.005981,0.039185,-0.000305,0.007812,-0.003906,0.011719
6922340000,0.999207,-0.005981,0.039124,-0.000305,0.007812,0.003906,-0.027344
6945700000,0.999207,-0.005981,0.039124,-0.000305,0.007812,0.003906,0.011719
6961885000,0.999207,-0.005981,0.039185,-0.000305,0.007812,0.003906,0.011719
6981300000,0.999207,-0.005981,0.039185,-0.000305,0.007812,0.003906,-0.027344
7004534000,0.999207,-0.005981,0.039185,-0.000366,0.007812,0.003906,0.011719
7021183000,0.999207,-0.005981,0.039185,-0.000366,0.007812,0.003906,0.011719
7041151000,0.999207,-0.005981,0.039124,-0.000305,0.007812,0.003906,0.011719
7061689000,0.999207,-0.005981,0.039124,-0.000366,0.007812,0.003906,-0.027344
7091499000,0.999207,-0.005981,0.039124,-0.000305,0.007812,0.003906,0.011719
7101467000,0.999207,-0.005981,0.039124,-0.000305,0.007812,0.003906,0.011719
7120782000,0.999207,-0.005981,0.039124,-0.000305,0.007812,0.003906,0.050781
7147790000,0.999207,-0.005981,0.039124,-0.000305,-0.031250,-0.003906,-0.027344
7161023000,0.999207,-0.005981,0.039124,-0.000305,0.007812,-0.003906,0.011719
7181782000,0.999207,-0.005981,0.039124,-0.000305,0.046875,-0.003906,0.011719
7206535000,0.999207,-0.005981,0.039124,-0.000305,-0.031250,-0.003906,0.011719
7221310000,0.999207,-0.005981,0.039124,-0.000305,0.007812,-0.003906,0.011719
7241077000,0.999207,-0.005981,0.039124,-0.000305,0.007812,-0.003906,-0.027344
7260720000,0.999207,-0.005981,0.039124,-0.000305,0.007812,0.031250,-0.027344
7280441000,0.999207,-0.005981,0.039124,-0.000305,-0.031250,-0.003906,-0.027344
7300223000,0.999207,-0.005981,0.039124,-0.000305,0.007812,-0.003906,-0.027344
7329979000,0.999207,-0.005981,0.039124,-0.000305,0.007812,-0.003906,0.011719
7340650000,0.999207,-0.005981,0.039124,-0.000305,0.007812,0.031250,0.011719
7361408000,0.999207,-0.005981,0.039124,-0.000366,-0.031250,0.031250,0.011719
7380092000,0.999207,-0.005920,0.039124,-0.000366,0.007812,-0.003906,0.011719
7400666000,0.999207,-0.005920,0.039124,-0.000366,0.007812,-0.003906,0.011719
7427349000,0.999207,-0.005920,0.039124,-0.000366,0.007812,-0.003906,0.011719
7440610000,0.999207,-0.005920,0.039124,-0.000366,0.007812,-0.003906,0.011719
7459644000,0.999207,-0.005920,0.039124,-0.000366,0.007812,0.031250,0.011719
7480311000,0.999207,-0.005920,0.039124,-0.000366,0.007812,-0.003906,0.011719
7500152000,0.999207,-0.005859,0.039124,-0.000366,-0.031250,-0.003906,0.011719
7521986000,0.999207,-0.005859,0.039124,-0.000305,-0.031250,-0.003906,0.011719
7545245000,0.999207,-0.005920,0.039124,-0.000366,0.007812,0.031250,0.011719
7559911000,0.999207,-0.005920,0.039124,-0.000366,0.007812,0.031250,0.011719
7579497000,0.999207,-0.005920,0.039124,-0.000366,0.007812,-0.003906,0.003906
7599705000,0.999207,-0.005920,0.039124,-0.000366,0.007812,-0.003906,0.003906
7626993000,0.999207,-0.005920,0.039124,-0.000366,0.007812,-0.003906,0.003906
7639634000,0.999207,-0.005920,0.039124,-0.000366,0.007812,-0.042969,0.003906
7659511000,0.999207,-0.005920,0.039124,-0.000366,0.007812,-0.003906,0.003906
7680695000,0.999207,-0.005920,0.039124,-0.000366,0.007812,-0.003906,0.003906
7706341000,0.999207,-0.005981,0.039124,-0.000366,0.007812,-0.003906,0.003906
7719828000,0.999207,-0.005981,0.039062,-0.000366,0.007812,-0.003906,0.003906
7739888000,0.999207,-0.005981,0.039062,-0.000366,0.007812,0.031250,0.003906
7768979000,0.999207,-0.005981,0.039062,-0.000366,0.007812,-0.003906,0.003906
7780735000,0.999207,-0.005981,0.039062,-0.000366,0.007812,-0.003906,0.003906
7800062000,0.999207,-0.005981,0.039062,-0.000366,-0.031250,-0.003906,0.003906
7819393000,0.999207,-0.005920,0.039062,-0.000366,0.007812,-0.003906,0.003906
7838955000,0.999207,-0.005920,0.039062,-0.000366,0.007812,-0.003906,0.003906
7859364000,0.999207,-0.005981,0.039062,-0.000366,0.000000,0.031250,0.003906
7885306000,0.999207,-0.005981,0.039062,-0.000366,0.000000,-0.003906,-0.035156
7898823000,0.999207,-0.005981,0.039062,-0.000366,0.000000,-0.003906,-0.035156
7918757000,0.999207,-0.005981,0.039062,-0.000366,0.000000,-0.003906,0.003906
7949156000,0.999207,-0.005981,0.039062,-0.000366,0.000000,-0.003906,0.003906
7958628000,0.999207,-0.005981,0.039062,-0.000305,-0.039062,0.031250,0.003906
7978619000,0.999207,-0.005920,0.039062,-0.000305,0.000000,0.031250,0.042969
7998775000,0.999207,-0.005981,0.039062,-0.000305,0.000000,-0.003906,0.003906
8028874000,0.999207,-0.005981,0.039062,-0.000305,0.000000,0.031250,0.003906
8045192000,0.999207,-0.005920,0.039062,-0.000305,0.000000,-0.003906,0.003906
8058392000,0.999207,-0.005981,0.039062,-0.000305,0.007812,-0.003906,0.003906
8078972000,0.999207,-0.005981,0.039062,-0.000305,0.000000,-0.003906,0.003906
8108779000,0.999207,-0.005981,0.039124,-0.000305,0.007812,-0.003906,0.003906
8124177000,0.999207,-0.005981,0.039124,-0.000305,0.046875,-0.003906,0.003906
8139289000,0.999207,-0.005981,0.039124,-0.000244,0.007812,-0.003906,0.003906
8158699000,0.999207,-0.005920,0.039124,-0.000244,0.007812,-0.003906,0.003906
8183573000,0.999207,-0.005920,0.039062,-0.000244,0.007812,0.031250,0.003906
8198468000,0.999207,-0.005920,0.039124,-0.000244,0.007812,-0.003906,0.003906
8218893000,0.999207,-0.005981,0.039062,-0.000244,0.007812,-0.003906,0.003906
8245320000,0.999207,-0.005920,0.039062,-0.000244,0.000000,-0.003906,0.003906
8258072000,0.999207,-0.005920,0.039062,-0.000244,-0.007812,-0.003906,0.003906
8277855000,0.999207,-0.005920,0.039062,-0.000244,-0.007812,0.031250,0.003906
8308368000,0.999207,-0.005920,0.039001,-0.000244,0.000000,0.031250,0.003906
8318115000,0.999207,-0.005981,0.039001,-0.000244,0.000000,-0.003906,0.003906
8338476000,0.999207,-0.005981,0.039001,-0.000183,0.000000,0.031250,0.003906
8357980000,0.999207,-0.005981,0.039001,-0.000244,0.000000,-0.003906,-0.035156
8378505000,0.999207,-0.006042,0.039001,-0.000244,-0.039062,0.031250,0.003906
8397964000,0.999207,-0.006042,0.039001,-0.000244,-0.039062,-0.003906,0.003906
8427287000,0.999207,-0.006042,0.039001,-0.000244,0.000000,0.031250,0.003906
8437469000,0.999207,-0.005981,0.039001,-0.000244,0.000000,-0.003906,0.003906
8458040000,0.999207,-0.006042,0.039001,-0.000244,0.000000,0.031250,0.003906
8477684000,0.999207,-0.005981,0.039001,-0.000183,0.000000,-0.003906,0.003906
8499611000,0.999207,-0.005981,0.039001,-0.000183,0.000000,-0.042969,0.003906
8523413000,0.999207,-0.005981,0.039001,-0.000183,0.000000,-0.003906,-0.035156
8537123000,0.999207,-0.006042,0.039001,-0.000244,0.039062,0.031250,0.011719
8559868000,0.999207,-0.006042,0.039001,-0.000183,-0.039062,-0.003906,0.011719
8576908000,0.999207,-0.006042,0.039001,-0.000183,0.000000,-0.003906,-0.027344
8597336000,0.999207,-0.006042,0.039001,-0.000183,0.000000,-0.003906,0.011719
8617191000,0.999207,-0.006042,0.039001,-0.000183,0.007812,-0.003906,0.011719
8638836000,0.999207,-0.006042,0.039001,-0.000183,-0.031250,0.031250,0.011719
8656990000,0.999207,-0.006042,0.039001,-0.000183,0.007812,-0.003906,0.011719
8677407000,0.999207,-0.006042,0.039001,-0.000183,0.007812,0.031250,-0.027344
8698019000,0.999207,-0.006042,0.039001,-0.000183,-0.031250,-0.003906,0.011719
8721678000,0.999207,-0.006042,0.039001,-0.000183,0.007812,-0.003906,0.011719
8737164000,0.999207,-0.006042,0.039001,-0.000183,-0.031250,-0.003906,0.011719
8757282000,0.999207,-0.006042,0.039001,-0.000183,0.007812,-0.003906,0.011719
8786866000,0.999207,-0.006042,0.039001,-0.000183,-0.031250,0.031250,0.011719
8796798000,0.999207,-0.006042,0.039001,-0.000183,-0.031250,-0.003906,0.011719
8817726000,0.999207,-0.006042,0.039001,-0.000183,0.007812,0.031250,0.011719
8837048000,0.999207,-0.006042,0.039001,-0.000183,0.007812,-0.003906,0.011719
8866708000,0.999207,-0.006042,0.039001,-0.000183,0.007812,-0.003906,0.011719
8876277000,0.999207,-0.006042,0.039001,-0.000183,-0.031250,-0.003906,0.011719
8896806000,0.999207,-0.006042,0.039001,-0.000183,0.007812,-0.003906,0.003906
8926068000,0.999207,-0.006042,0.039001,-0.000183,-0.031250,-0.003906,0.003906
8936160000,0.999207,-0.006042,0.039001,-0.000183,0.007812,-0.003906,-0.035156
8966098000,0.999207,-0.006042,0.039001,-0.000183,0.007812,-0.003906,0.003906
8976326000,0.999207,-0.006042,0.039001,-0.000183,0.007812,-0.003906,0.003906
8996834000,0.999207,-0.006042,0.039001,-0.000183,0.007812,-0.003906,0.042969
9016897000,0.999207,-0.006042,0.039001,-0.000183,-0.031250,-0.003906,-0.035156
9036376000,0.999207,-0.006042,0.039001,-0.000183,0.007812,-0.003906,0.003906
9058831000,0.999207,-0.006042,0.039001,-0.000183,0.007812,-0.003906,0.003906
9076811000,0.999207,-0.006042,0.039001,-0.000183,0.007812,0.031250,0.003906
9105160000,0.999207,-0.006042,0.039001,-0.000183,0.007812,-0.003906,0.003906
9115375000,0.999207,-0.006042,0.039001,-0.000183,-0.031250,0.031250,0.042969
9136804000,0.999207,-0.006042,0.039001,-0.000183,-0.031250,-0.003906,0.003906
9157234000,0.999207,-0.006042,0.039001,-0.000183,-0.031250,-0.003906,0.003906
9176214000,0.999207,-0.006042,0.039001,-0.000183,-0.031250,-0.003906,0.003906
9196420000,0.999207,-0.006042,0.039001,-0.000183,0.007812,-0.003906,0.003906
9216441000,0.999207,-0.006042,0.039001,-0.000183,-0.031250,-0.003906,0.003906
9244957000,0.999207,-0.006042,0.039001,-0.000183,-0.023438,-0.003906,0.003906
9255163000,0.999207,-0.006042,0.039001,-0.000183,0.015625,-0.003906,0.003906
9276622000,0.999207,-0.006042,0.039001,-0.000183,0.015625,-0.003906,0.003906
9296428000,0.999207,-0.006042,0.039001,-0.000183,0.015625,-0.003906,0.003906
9316411000,0.999207,-0.006042,0.039001,-0.000183,-0.023438,-0.003906,0.003906
9341803000,0.999207,-0.006042,0.039001,-0.000183,0.015625,-0.003906,0.003906
9356231000,0.999207,-0.006042,0.039001,-0.000183,-0.023438,-0.003906,0.003906
9384629000,0.999207,-0.006042,0.039001,-0.000183,0.015625,-0.003906,0.003906
9395234000,0.999207,-0.006042,0.039001,-0.000183,0.015625,-0.003906,0.003906
9424631000,0.999207,-0.006042,0.039001,-0.000183,0.015625,0.031250,0.003906
9444432000,0.999207,-0.006042,0.038940,-0.000183,0.015625,-0.003906,0.003906
9455367000,0.999207,-0.006042,0.039001,-0.000183,0.007812,-0.003906,0.003906
9476705000,0.999207,-0.006042,0.038940,-0.000183,0.007812,-0.003906,0.003906
9504871000,0.999207,-0.006104,0.038940,-0.000183,0.007812,-0.003906,0.042969
9524698000,0.999207,-0.006042,0.039001,-0.000183,0.007812,0.031250,0.003906
9541651000,0.999207,-0.006042,0.038940,-0.000183,0.007812,-0.003906,0.003906
9567162000,0.999207,-0.006042,0.038940,-0.000183,0.007812,0.031250,0.003906
9584527000,0.999207,-0.006042,0.039001,-0.000183,-0.031250,-0.003906,0.042969
9604318000,0.999207,-0.006042,0.039001,-0.000183,-0.031250,-0.003906,0.003906
9624021000,0.999207,-0.006104,0.038940,-0.000183,0.007812,-0.003906,0.003906
9645550000,0.999207,-0.006104,0.038940,-0.000183,0.007812,0.031250,0.003906
9655314000,0.999207,-0.006104,0.038940,-0.000183,0.007812,-0.003906,0.003906
9684342000,0.999207,-0.006042,0.038940,-0.000183,0.007812,-0.003906,0.003906
9695293000,0.999207,-0.006042,0.038940,-0.000183,0.007812,-0.003906,0.003906
9726203000,0.999207,-0.006104,0.038940,-0.000183,0.007812,-0.003906,0.042969
9744086000,0.999207,-0.006104,0.038940,-0.000183,0.007812,-0.003906,0.003906
9763734000,0.999207,-0.006104,0.038940,-0.000183,0.007812,-0.003906,0.042969
9794417000,0.999207,-0.006104,0.038940,-0.000183,0.007812,-0.003906,0.003906
9809964000,0.999207,-0.006104,0.038940,-0.000183,0.007812,-0.003906,0.003906
9823908000,0.999207,-0.006104,0.038940,-0.000183,0.007812,0.031250,0.003906
9843796000,0.999207,-0.006104,0.038940,-0.000183,0.007812,-0.003906,0.003906
9865000000,0.999207,-0.006104,0.038940,-0.000183,0.007812,-0.003906,0.003906
9889346000,0.999207,-0.006104,0.038940,-0.000183,0.007812,-0.003906,0.042969
9903824000,0.999207,-0.006165,0.038940,-0.000183,-0.031250,-0.003906,-0.035156
9923495000,0.999207,-0.006165,0.038940,-0.000183,0.007812,-0.003906,0.003906
9949591000,0.999207,-0.006104,0.038940,-0.000183,0.007812,-0.003906,-0.035156
9963414000,0.999207,-0.006104,0.038940,-0.000183,0.046875,-0.003906,0.003906
9983320000,0.999207,-0.006165,0.038940,-0.000183,0.007812,-0.003906,0.003906
10004630000,0.999207,-0.006104,0.038879,-0.000183,0.007812,0.031250,0.003906
10023136000,0.999207,-0.006104,0.038879,-0.000122,0.007812,-0.003906,0.003906
10042867000,0.999207,-0.006104,0.038879,-0.000122,0.007812,-0.003906,-0.035156
10063564000,0.999207,-0.006104,0.038879,-0.000122,0.007812,0.031250,0.003906
10090019000,0.999207,-0.006165,0.038818,-0.000122,0.007812,-0.003906,0.003906
10103176000,0.999207,-0.006165,0.038818,-0.000122,-0.031250,-0.003906,0.003906
10123291000,0.999207,-0.006165,0.038818,-0.000122,-0.031250,-0.003906,0.003906
10142871000,0.999207,-0.006165,0.038879,-0.000122,0.007812,-0.003906,0.011719
10162647000,0.999207,-0.006226,0.038818,-0.000122,-0.031250,0.003906,0.011719
10186042000,0.999207,-0.006165,0.038818,-0.000122,0.007812,0.039062,0.011719
10202478000,0.999207,-0.006165,0.038818,-0.000183,0.007812,0.003906,0.011719
10224779000,0.999207,-0.006165,0.038818,-0.000183,0.007812,0.003906,0.011719
10242644000,0.999207,-0.006165,0.038818,-0.000122,0.007812,0.039062,0.011719
10262855000,0.999207,-0.006165,0.038818,-0.000122,0.007812,-0.003906,0.011719
10282767000,0.999207,-0.006165,0.038818,-0.000183,0.007812,0.023438,0.011719
10302941000,0.999207,-0.006165,0.038818,-0.000122,0.007812,-0.003906,0.011719
10322482000,0.999207,-0.006165,0.038818,-0.000122,0.007812,-0.003906,0.003906
10342784000,0.999207,-0.006165,0.038879,-0.000183,0.007812,0.031250,0.003906
10366545000,0.999207,-0.006165,0.038879,-0.000183,0.007812,-0.011719,0.003906
10382581000,0.999207,-0.006165,0.038879,-0.000183,-0.031250,-0.011719,0.003906
10402178000,0.999207,-0.006165,0.038879,-0.000183,0.007812,-0.011719,0.003906
10421621000,0.999207,-0.006165,0.038879,-0.000183,-0.031250,-0.011719,0.003906
10441934000,0.999207,-0.006165,0.038879,-0.000183,0.007812,0.023438,0.003906
10461630000,0.999207,-0.006165,0.038879,-0.000183,0.007812,0.023438,0.003906
10485929000,0.999207,-0.006165,0.038879,-0.000183,0.007812,0.023438,0.003906
10501657000,0.999207,-0.006165,0.038879,-0.000183,0.007812,-0.011719,0.003906
10522035000,0.999207,-0.006165,0.038879,-0.000183,0.007812,-0.011719,0.042969
10542645000,0.999207,-0.006165,0.038879,-0.000183,-0.031250,-0.011719,0.003906
10567348000,0.999207,-0.006165,0.038879,-0.000183,0.007812,-0.011719,-0.035156
10581503000,0.999207,-0.006165,0.038879,-0.000183,-0.031250,0.023438,0.003906
10601366000,0.999207,-0.006165,0.038879,-0.000183,0.007812,-0.011719,0.003906
10625468000,0.999207,-0.006165,0.038879,-0.000183,0.007812,-0.011719,0.003906
10641288000,0.999207,-0.006165,0.038879,-0.000183,0.007812,-0.011719,0.003906
10661072000,0.999207,-0.006165,0.038879,-0.000183,0.007812,-0.003906,0.042969
10680764000,0.999207,-0.006165,0.038879,-0.000183,-0.031250,0.031250,0.003906
10711970000,0.999207,-0.006165,0.038879,-0.000183,0.007812,-0.003906,0.003906
10725578000,0.999207,-0.006165,0.038879,-0.000183,0.007812,-0.003906,0.042969
10740820000,0.999207,-0.006165,0.038879,-0.000183,0.007812,-0.003906,0.003906
10761255000,0.999207,-0.006165,0.038879,-0.000183,0.007812,-0.003906,-0.035156
10783275000,0.999207,-0.006165,0.038879,-0.000183,-0.031250,0.031250,0.003906
10807055000,0.999207,-0.006165,0.038818,-0.000183,-0.023438,0.031250,0.003906
10820675000,0.999207,-0.006226,0.038818,-0.000183,0.015625,0.003906,-0.035156
10840438000,0.999207,-0.006165,0.038879,-0.000183,0.015625,0.003906,-0.035156
10870619000,0.999207,-0.006165,0.038879,-0.000122,0.015625,0.003906,0.003906
10880671000,0.999207,-0.006165,0.038879,-0.000183,-0.023438,-0.003906,0.003906
10902913000,0.999207,-0.006165,0.038879,-0.000183,0.015625,0.003906,0.042969
10920724000,0.999207,-0.006165,0.038879,-0.000183,0.054688,0.003906,0.003906
10946821000,0.999207,-0.006165,0.038879,-0.000183,0.015625,0.031250,0.003906
10960249000,0.999207,-0.006165,0.038879,-0.000122,0.046875,-0.003906,0.003906
10980094000,0.999207,-0.006165,0.038879,-0.000122,0.007812,-0.003906,0.003906
11010778000,0.999207,-0.006104,0.038879,-0.000122,0.007812,-0.003906,0.003906
11020048000,0.999207,-0.006104,0.038879,-0.000122,0.007812,-0.003906,0.003906
11041092000,0.999207,-0.006104,0.038818,-0.000122,0.007812,-0.003906,0.042969
11060133000,0.999207,-0.006104,0.038818,-0.000122,0.007812,-0.003906,0.003906
11080800000,0.999207,-0.006104,0.038818,-0.000122,-0.031250,-0.003906,-0.035156
11100548000,0.999207,-0.006104,0.038818,-0.000122,0.007812,-0.003906,0.003906
11120515000,0.999207,-0.006104,0.038818,-0.000122,0.007812,-0.003906,-0.035156
11140200000,0.999207,-0.006104,0.038818,-0.000122,0.007812,-0.003906,0.003906
11170476000,0.999207,-0.006104,0.038818,-0.000122,0.007812,-0.003906,0.042969
11180203000,0.999207,-0.006104,0.038818,-0.000122,0.007812,-0.003906,0.003906
11199804000,0.999207,-0.006042,0.038818,-0.000122,0.007812,-0.003906,0.042969
11230425000,0.999207,-0.006104,0.038818,-0.000183,0.007812,-0.003906,0.003906
11239837000,0.999207,-0.006104,0.038879,-0.000183,-0.031250,0.031250,0.003906
11259897000,0.999207,-0.006042,0.038818,-0.000183,-0.031250,0.031250,0.003906
11290055000,0.999207,-0.006104,0.038818,-0.000183,0.007812,-0.003906,0.003906
11306866000,0.999207,-0.006104,0.038818,-0.000183,0.007812,0.031250,0.003906
11319575000,0.999207,-0.006104,0.038818,-0.000244,-0.031250,-0.003906,0.003906
11339451000,0.999207,-0.006104,0.038818,-0.000244,0.007812,-0.003906,0.042969
11369971000,0.999207,-0.006104,0.038818,-0.000244,0.007812,-0.003906,0.003906
11384814000,0.999207,-0.006104,0.038818,-0.000244,0.007812,-0.003906,0.003906
11399350000,0.999207,-0.006104,0.038879,-0.000244,0.007812,-0.003906,0.003906
11419515000,0.999207,-0.006165,0.038818,-0.000244,0.007812,-0.003906,0.003906
11449356000,0.999207,-0.006165,0.038818,-0.000305,0.007812,-0.003906,-0.035156
11462840000,0.999207,-0.006165,0.038818,-0.000305,0.007812,0.031250,0.003906
11479538000,0.999207,-0.006165,0.038818,-0.000305,0.007812,-0.003906,0.003906
11499394000,0.999207,-0.006104,0.038818,-0.000305,0.007812,-0.003906,0.042969
11529735000,0.999207,-0.006104,0.038818,-0.000244,0.007812,0.031250,-0.035156
11538899000,0.999207,-0.006104,0.038818,-0.000244,0.007812,-0.003906,0.003906
11560981000,0.999207,-0.006104,0.038818,-0.000244,-0.031250,-0.003906,0.003906
11585397000,0.999207,-0.006104,0.038757,-0.000244,-0.031250,-0.003906,0.003906
11598726000,0.999207,-0.006104,0.038757,-0.000244,0.046875,-0.003906,0.003906
11621413000,0.999207,-0.006104,0.038757,-0.000244,0.007812,-0.003906,0.003906
11644099000,0.999207,-0.006042,0.038757,-0.000244,0.007812,-0.003906,0.003906
11658623000,0.999207,-0.006042,0.038818,-0.000244,0.007812,-0.003906,0.003906
11679245000,0.999207,-0.006042,0.038818,-0.000244,-0.031250,-0.003906,0.003906
11698363000,0.999207,-0.006042,0.038818,-0.000244,0.007812,-0.003906,0.003906
11720037000,0.999207,-0.006042,0.038818,-0.000244,0.007812,-0.003906,0.003906
11739180000,0.999207,-0.006042,0.038818,-0.000244,0.046875,-0.003906,0.003906
11758201000,0.999207,-0.006042,0.038818,-0.000244,-0.031250,-0.003906,0.003906
11777998000,0.999207,-0.006042,0.038818,-0.000244,0.007812,-0.003906,0.003906
11798135000,0.999207,-0.006042,0.038818,-0.000244,0.007812,-0.003906,0.003906
11828294000,0.999207,-0.006042,0.038818,-0.000244,0.007812,-0.003906,0.003906
11843811000,0.999207,-0.006042,0.038818,-0.000244,0.007812,-0.003906,0.003906
11857758000,0.999207,-0.006042,0.038818,-0.000244,0.007812,-0.003906,0.003906
11878237000,0.999207,-0.006042,0.038818,-0.000244,0.007812,-0.003906,0.003906
11898281000,0.999207,-0.006042,0.038818,-0.000244,0.007812,-0.003906,0.003906
11922620000,0.999207,-0.006042,0.038818,-0.000244,0.007812,-0.003906,0.003906
11937816000,0.999207,-0.006042,0.038818,-0.000244,0.007812,-0.003906,0.003906
11958101000,0.999207,-0.006042,0.038818,-0.000244,0.007812,0.031250,0.003906
11984565000,0.999207,-0.006042,0.038818,-0.000244,-0.031250,-0.003906,0.042969
11997688000,0.999207,-0.006042,0.038818,-0.000244,0.007812,-0.003906,0.003906
12023943000,0.999207,-0.006042,0.038818,-0.000244,0.007812,-0.003906,0.003906
12037698000,0.999207,-0.006042,0.038818,-0.000244,0.000000,-0.003906,-0.035156
12064413000,0.999207,-0.006042,0.038818,-0.000244,0.000000,-0.003906,0.003906
12077526000,0.999207,-0.006042,0.038818,-0.000244,0.000000,0.031250,0.003906
12097590000,0.999207,-0.006042,0.038818,-0.000244,0.000000,-0.003906,0.003906
12118003000,0.999207,-0.006042,0.038818,-0.000244,0.000000,-0.003906,0.042969
12147184000,0.999207,-0.006042,0.038818,-0.000244,0.000000,0.031250,0.003906
12157409000,0.999207,-0.006042,0.038818,-0.000244,0.000000,-0.003906,0.042969
12177481000,0.999207,-0.006042,0.038818,-0.000244,0.000000,-0.042969,-0.035156
12207633000,0.999207,-0.006042,0.038818,-0.000244,0.000000,-0.003906,-0.035156
12217205000,0.999207,-0.006042,0.038818,-0.000244,0.000000,-0.003906,0.003906
12237203000,0.999207,-0.006042,0.038818,-0.000244,-0.039062,-0.003906,0.003906
12257288000,0.999207,-0.006042,0.038818,-0.000244,0.000000,-0.003906,0.003906
12277548000,0.999207,-0.006836,0.038940,0.000305,1.292969,-0.335938,-0.035156
12297325000,0.999207,-0.007507,0.038879,0.000732,1.660156,0.179688,-0.113281
12317468000,0.999207,-0.007751,0.038513,0.000793,0.839844,-0.074219,-0.035156
12346814000,0.999268,-0.008301,0.038086,0.000916,-0.582031,0.277344,-0.648438
12357255000,0.999268,-0.008911,0.037720,0.000732,-0.753906,-0.019531,-0.152344
12377435000,0.999268,-0.009827,0.037170,0.000732,-0.996094,-0.308594,1.304688
12397412000,0.999268,-0.011414,0.036377,0.000549,-0.062500,0.449219,-1.222656
12427323000,0.999268,-0.011719,0.036255,0.000610,-0.070312,-0.179688,0.652344
12444396000,0.999268,-0.011780,0.036133,0.000610,0.425781,0.089844,-0.035156
12457161000,0.999268,-0.011841,0.036011,0.000671,0.304688,-0.019531,0.078125
12477236000,0.999268,-0.012085,0.035767,0.000671,0.179688,0.019531,-0.074219
12506974000,0.999268,-0.012329,0.035461,0.000610,0.144531,-0.125000,-0.074219
12520754000,0.999268,-0.012329,0.035400,0.000488,0.281250,0.066406,0.042969
12536869000,0.999268,-0.012451,0.035339,0.000244,-0.371094,-0.316406,0.078125
12557087000,0.999329,-0.012695,0.035156,0.000244,0.511719,-0.117188,-0.074219
12577271000,0.999329,-0.013245,0.034790,0.000244,0.433594,-0.187500,0.042969
12606231000,0.999329,-0.013672,0.034180,0.000244,-0.125000,0.058594,0.843750
12616324000,0.999329,-0.013916,0.034058,0.000244,0.179688,0.328125,-0.570312
12637116000,0.999329,-0.014099,0.033569,0.000183,-0.140625,-0.007812,-0.265625
12656816000,0.999329,-0.014404,0.033264,0.000244,-0.148438,-0.046875,-0.035156
12676696000,0.999329,-0.014648,0.032898,0.000244,-0.113281,0.027344,-0.035156
12697193000,0.999329,-0.015015,0.032532,0.000366,0.109375,-0.230469,0.187500
12716683000,0.999390,-0.015198,0.032104,0.000366,-0.042969,0.121094,-0.351562
12736480000,0.999390,-0.015503,0.031677,0.000488,-0.105469,0.167969,0.300781
12756734000,0.999390,-0.015808,0.031250,0.000549,0.085938,-0.023438,-0.082031
12777457000,0.999390,-0.016052,0.030884,0.000549,-0.113281,0.058594,-0.121094
12806131000,0.999390,-0.016235,0.030396,0.000610,-0.281250,0.105469,0.226562
12825268000,0.999390,-0.016418,0.030029,0.000671,-0.058594,0.105469,0.300781
12835431000,0.999451,-0.016235,0.029724,0.000610,0.011719,0.144531,-0.121094
12856803000,0.999451,-0.016418,0.029419,0.000671,0.164062,-0.160156,-0.273438
12876935000,0.999451,-0.016418,0.028870,0.000610,-0.152344,0.257812,-0.617188
12905509000,0.999451,-0.016846,0.028259,0.000671,-0.050781,-0.007812,0.070312
12915431000,0.999451,-0.016785,0.028137,0.000671,-0.128906,0.113281,0.261719
12937162000,0.999451,-0.016846,0.027649,0.000732,-0.066406,0.113281,-0.160156
12965996000,0.999512,-0.016907,0.027039,0.000977,-0.113281,0.191406,-0.195312
12985380000,0.999512,-0.017029,0.026489,0.001404,-0.582031,0.039062,-0.273438
12995385000,0.999512,-0.017029,0.026184,0.001648,-0.781250,-0.078125,0.378906
13016625000,0.999512,-0.017090,0.025574,0.002258,-0.820312,0.113281,-0.425781
13037454000,0.999512,-0.017578,0.025146,0.002747,-0.406250,-0.500000,-0.734375
13064985000,0.999512,-0.017456,0.024963,0.002686,-0.566406,0.046875,0.109375
13075297000,0.999512,-0.017456,0.024963,0.002686,-0.535156,0.007812,-0.003906
13106638000,0.999512,-0.017456,0.024963,0.002686,-0.421875,0.046875,-0.042969
13124642000,0.999512,-0.017456,0.024963,0.002686,-0.105469,0.007812,-0.003906
13135190000,0.999512,-0.017456,0.024963,0.002686,-0.105469,0.007812,0.035156
13164553000,0.999512,-0.017517,0.024963,0.002686,-0.066406,0.007812,0.035156
13184814000,0.999512,-0.017578,0.024963,0.002686,-0.066406,0.007812,0.035156
13206501000,0.999512,-0.017578,0.024902,0.002686,-0.105469,0.046875,-0.003906
13215318000,0.999512,-0.017517,0.024902,0.002686,-0.105469,0.007812,0.035156
13244089000,0.999512,-0.017578,0.024902,0.002686,-0.105469,0.007812,-0.003906
13269814000,0.999512,-0.017578,0.024902,0.002686,-0.066406,0.007812,0.035156
13284404000,0.999512,-0.017578,0.024902,0.002686,-0.097656,0.007812,0.035156
13304525000,0.999512,-0.017578,0.024902,0.002686,-0.097656,0.007812,-0.003906
13324201000,0.999512,-0.017578,0.024902,0.002686,-0.058594,0.007812,0.035156
13348036000,0.999512,-0.017517,0.024902,0.002686,-0.097656,0.007812,0.035156
13364099000,0.999512,-0.017517,0.024902,0.002686,-0.097656,0.007812,0.035156
13383702000,0.999512,-0.017456,0.024902,0.002686,-0.058594,0.046875,-0.003906
13404510000,0.999512,-0.017456,0.024902,0.002686,-0.097656,0.007812,0.035156
13423717000,0.999512,-0.017456,0.024902,0.002686,-0.058594,0.007812,0.035156
13444210000,0.999512,-0.017456,0.024902,0.002686,-0.089844,0.046875,-0.003906
13469694000,0.999512,-0.017456,0.024902,0.002686,-0.011719,-0.007812,0.019531
13484349000,0.999512,-0.017456,0.024902,0.002686,-0.011719,0.031250,-0.019531
13503903000,0.999512,-0.017395,0.024902,0.002686,-0.011719,-0.007812,0.019531
13524127000,0.999512,-0.017456,0.024902,0.002686,-0.011719,-0.007812,0.019531
13545925000,0.999512,-0.017456,0.024902,0.002686,-0.011719,-0.007812,-0.019531
13565105000,0.999512,-0.017456,0.024963,0.002686,0.027344,-0.007812,0.019531
13583447000,0.999512,-0.017456,0.024963,0.002686,-0.011719,-0.007812,-0.019531
13608308000,0.999512,-0.017456,0.024963,0.002686,-0.011719,-0.007812,-0.019531
13623655000,0.999512,-0.017456,0.024963,0.002686,-0.011719,-0.007812,0.019531
13643876000,0.999512,-0.017456,0.024902,0.002747,-0.011719,-0.007812,-0.019531
13671767000,0.999512,-0.017456,0.024963,0.002747,-0.011719,-0.007812,-0.019531
13683183000,0.999512,-0.017456,0.024902,0.002747,-0.011719,-0.007812,0.019531
13706330000,0.999512,-0.017517,0.024902,0.002686,0.027344,0.031250,-0.019531
13722991000,0.999512,-0.017517,0.024902,0.002686,-0.011719,-0.007812,0.019531
13743106000,0.999512,-0.017517,0.024902,0.002686,-0.011719,-0.007812,0.019531
13771391000,0.999512,-0.017517,0.024902,0.002686,-0.011719,-0.007812,0.019531
13783150000,0.999512,-0.017456,0.024902,0.002686,-0.011719,-0.007812,-0.019531
13802691000,0.999512,-0.017395,0.024902,0.002686,-0.011719,-0.007812,-0.019531
13824220000,0.999512,-0.017395,0.024963,0.002686,-0.011719,-0.007812,-0.019531
13842612000,0.999512,-0.017456,0.024902,0.002686,-0.011719,-0.007812,0.019531
13863328000,0.999512,-0.017456,0.024902,0.002686,0.027344,0.031250,-0.019531
13882825000,0.999512,-0.017456,0.024902,0.002747,-0.011719,-0.007812,-0.011719
13907111000,0.999512,-0.017456,0.024902,0.002686,-0.011719,-0.007812,0.027344
13922765000,0.999512,-0.017456,0.024902,0.002747,-0.011719,-0.007812,0.019531
13942976000,0.999512,-0.017517,0.024902,0.002747,0.027344,-0.007812,-0.058594
13962486000,0.999512,-0.017517,0.024902,0.002686,-0.003906,-0.007812,0.019531
13983229000,0.999512,-0.017517,0.024902,0.002747,-0.003906,-0.007812,-0.019531
14006702000,0.999512,-0.017517,0.024902,0.002747,-0.003906,0.031250,-0.019531
14022083000,0.999512,-0.017517,0.024902,0.002747,-0.003906,-0.007812,0.019531
14042045000,0.999512,-0.017456,0.024902,0.002747,-0.003906,-0.007812,0.019531
14072185000,0.999512,-0.017456,0.024902,0.002808,-0.003906,-0.007812,-0.019531
14089281000,0.999512,-0.017456,0.024902,0.002808,-0.003906,-0.007812,-0.019531
14101978000,0.999512,-0.017456,0.024902,0.002808,-0.003906,-0.007812,-0.019531
14122362000,0.999512,-0.017456,0.024902,0.002808,0.035156,-0.007812,-0.019531
14146198000,0.999512,-0.017456,0.024902,0.002808,0.035156,-0.007812,0.027344
14162231000,0.999512,-0.017517,0.024902,0.002808,0.035156,-0.007812,0.027344
14182358000,0.999512,-0.017517,0.024841,0.002747,-0.003906,-0.007812,0.019531
14202516000,0.999512,-0.017517,0.024841,0.002747,-0.003906,0.031250,-0.019531
14226821000,0.999512,-0.017517,0.024841,0.002747,0.035156,-0.007812,-0.019531
14242281000,0.999512,-0.017517,0.024841,0.002808,0.035156,0.031250,-0.019531
14262223000,0.999512,-0.017517,0.024902,0.002808,-0.003906,-0.007812,-0.019531
14286469000,0.999512,-0.017517,0.024902,0.002808,-0.003906,-0.007812,0.019531
14301908000,0.999512,-0.017517,0.024902,0.002808,-0.003906,-0.007812,-0.019531
14321174000,0.999512,-0.017578,0.024902,0.002808,-0.003906,-0.007812,-0.019531
14342000000,0.999512,-0.017578,0.024841,0.002808,-0.003906,-0.007812,0.019531
14361216000,0.999512,-0.017578,0.024841,0.002808,-0.003906,-0.007812,0.019531
14383828000,0.999512,-0.017578,0.024841,0.002808,-0.003906,-0.007812,-0.019531
14401124000,0.999512,-0.017578,0.024841,0.002808,-0.003906,0.031250,-0.011719
14424128000,0.999512,-0.017578,0.024841,0.002808,0.035156,-0.007812,0.027344
14443059000,0.999512,-0.017578,0.024841,0.002808,-0.003906,-0.007812,0.027344
14464842000,0.999512,-0.017578,0.024841,0.002808,0.035156,-0.007812,0.027344
14480750000,0.999512,-0.017578,0.024841,0.002808,-0.003906,-0.007812,0.027344
14501375000,0.999512,-0.017578,0.024841,0.002808,0.035156,-0.007812,-0.019531
14521792000,0.999512,-0.017578,0.024841,0.002808,-0.003906,-0.007812,-0.019531
14540986000,0.999512,-0.017578,0.024841,0.002808,-0.003906,-0.007812,-0.019531
14560587000,0.999512,-0.017578,0.024841,0.002808,-0.003906,-0.007812,-0.011719
14590810000,0.999512,-0.017578,0.024841,0.002808,-0.003906,0.031250,-0.011719
14605841000,0.999512,-0.017578,0.024841,0.002808,-0.003906,-0.007812,-0.011719
14620246000,0.999512,-0.017578,0.024841,0.002808,-0.003906,-0.007812,-0.011719
14640716000,0.999512,-0.017578,0.024841,0.002808,0.035156,-0.007812,0.027344
14670406000,0.999512,-0.017578,0.024841,0.002808,0.035156,-0.007812,-0.011719
14686014000,0.999512,-0.017578,0.024841,0.002808,-0.003906,-0.007812,-0.011719
14701418000,0.999512,-0.017578,0.024841,0.002808,0.035156,-0.007812,-0.011719
14721325000,0.999512,-0.017578,0.024841,0.002808,-0.003906,0.031250,0.027344
14743685000,0.999512,-0.017578,0.024841,0.002808,0.035156,-0.007812,-0.011719
14760640000,0.999512,-0.017578,0.024841,0.002808,-0.003906,-0.007812,0.027344
14780072000,0.999512,-0.017578,0.024841,0.002808,0.035156,-0.007812,-0.011719
14809818000,0.999512,-0.017578,0.024841,0.002808,-0.011719,-0.007812,0.027344
14819871000,0.999512,-0.017578,0.024841,0.002808,-0.011719,-0.007812,0.027344
14840271000,0.999512,-0.017578,0.024841,0.002808,0.027344,-0.007812,0.019531
14860119000,0.999512,-0.017578,0.024841,0.002808,-0.011719,-0.007812,-0.019531
14884917000,0.999512,-0.017578,0.024841,0.002808,-0.011719,-0.007812,-0.019531
14900014000,0.999512,-0.017578,0.024841,0.002808,-0.011719,-0.007812,0.019531
14919855000,0.999512,-0.017578,0.024841,0.002808,0.027344,-0.007812,-0.019531
14939555000,0.999512,-0.017578,0.024841,0.002808,-0.011719,0.031250,-0.019531
14969588000,0.999512,-0.017578,0.024841,0.002808,-0.011719,-0.007812,0.019531
14979900000,0.999512,-0.017578,0.024841,0.002808,0.027344,-0.007812,-0.019531
14999934000,0.999512,-0.017578,0.024841,0.002808,0.027344,-0.007812,0.019531
15020191000,0.999512,-0.017578,0.024841,0.002808,-0.011719,-0.007812,-0.019531
15049203000,0.999512,-0.017578,0.024841,0.002808,0.027344,0.031250,0.019531
15059608000,0.999512,-0.017578,0.024841,0.002808,0.027344,-0.007812,0.019531
15079554000,0.999512,-0.017578,0.024841,0.002808,0.027344,0.031250,-0.019531
15107172000,0.999512,-0.017578,0.024841,0.002808,-0.011719,-0.007812,-0.019531
15119230000,0.999512,-0.017578,0.024841,0.002808,-0.011719,0.031250,-0.019531
15139340000,0.999512,-0.017578,0.024841,0.002808,0.027344,-0.007812,-0.019531
15159443000,0.999512,-0.017578,0.024841,0.002808,0.027344,0.031250,-0.019531
15179297000,0.999512,-0.017578,0.024841,0.002808,-0.011719,-0.007812,-0.019531
15198784000,0.999512,-0.017578,0.024841,0.002808,0.027344,-0.007812,0.019531
15220310000,0.999512,-0.017578,0.024841,0.002808,-0.011719,-0.007812,0.019531
15248885000,0.999512,-0.017578,0.024841,0.002808,0.027344,-0.007812,0.019531
15259082000,0.999512,-0.017578,0.024841,0.002808,0.027344,0.031250,-0.019531
15278603000,0.999512,-0.017578,0.024841,0.002808,0.062500,-0.007812,-0.019531
15299525000,0.999512,-0.017578,0.024780,0.002869,1.847656,-0.007812,0.027344
15323727000,0.999512,-0.017578,0.024536,0.002869,1.367188,0.183594,0.062500
15338621000,0.999573,-0.017456,0.024170,0.002869,0.546875,-0.007812,-0.128906
15358668000,0.999573,-0.017395,0.023804,0.002808,0.183594,0.031250,-0.167969
15378770000,0.999573,-0.017273,0.023254,0.002808,0.582031,0.031250,-0.128906
15408100000,0.999634,-0.017090,0.022034,0.002747,0.328125,-0.007812,-0.136719
15418762000,0.999634,-0.017212,0.020996,0.002686,0.503906,0.031250,-0.441406
15438932000,0.999695,-0.018066,0.015442,0.002625,0.832031,0.230469,-1.667969
15465329000,0.999878,-0.010498,0.010010,0.003113,-1.820312,-1.949219,20.242188
15478633000,0.999756,-0.018555,0.012817,0.002502,0.960938,2.234375,1.648438
15498254000,0.999817,-0.016479,0.010925,0.002747,1.230469,-0.898438,-6.234375
15523348000,0.999756,-0.017822,0.012268,0.002441,0.332031,0.972656,-0.566406
15538134000,0.999756,-0.017151,0.011780,0.002258,-0.664062,0.441406,1.464844
15558725000,0.999817,-0.016724,0.011475,0.002136,-0.863281,0.558594,-0.152344
15578819000,0.999756,-0.017029,0.011597,0.002075,-0.750000,-0.023438,-0.035156
15607781000,0.999756,-0.017029,0.011597,0.002441,-0.566406,-0.062500,-0.074219
15618176000,0.999817,-0.016846,0.011475,0.002258,-0.792969,-0.023438,0.078125
15637814000,0.999756,-0.017029,0.011536,0.001953,-1.023438,-0.023438,0.078125
15659130000,0.999817,-0.016846,0.011475,0.001831,-0.871094,0.015625,-0.199219
15683748000,0.999817,-0.016907,0.011414,0.001892,-1.140625,0.050781,0.148438
15698234000,0.999817,-0.016724,0.011414,0.002136,-0.792969,-0.023438,0.031250
15727748000,0.999817,-0.016724,0.011475,0.002319,-0.601562,-0.140625,0.070312
15748073000,0.999817,-0.016724,0.011414,0.002258,-0.378906,-0.062500,0.031250
15757881000,0.999817,-0.016724,0.011414,0.002319,-0.265625,0.015625,0.070312
15778217000,0.999817,-0.016602,0.011414,0.002319,-0.304688,-0.101562,-0.089844
15797763000,0.999817,-0.016602,0.011414,0.002319,-0.609375,-0.070312,0.023438
15828005000,0.999817,-0.016602,0.011414,0.002319,-0.800781,-0.031250,-0.050781
15837407000,0.999817,-0.016541,0.011414,0.002319,-0.074219,-0.031250,-0.011719
15857828000,0.999817,-0.016541,0.011353,0.002319,-0.113281,-0.031250,-0.011719
15887100000,0.999817,-0.016479,0.011353,0.002258,-0.121094,0.007812,-0.011719
15897182000,0.999817,-0.016479,0.011353,0.002258,-0.121094,-0.031250,-0.011719
15920821000,0.999817,-0.016479,0.011353,0.002258,-0.121094,0.007812,-0.011719
15946569000,0.999817,-0.016479,0.011353,0.002258,-0.121094,-0.031250,-0.019531
15956956000,0.999817,-0.016479,0.011353,0.002258,-0.121094,-0.031250,-0.019531
15977347000,0.999817,-0.016479,0.011353,0.002258,-0.121094,-0.031250,-0.019531
15997643000,0.999817,-0.016479,0.011353,0.002258,-0.113281,-0.031250,-0.019531
16027019000,0.999817,-0.016479,0.011353,0.002258,-0.113281,-0.031250,-0.058594
16037466000,0.999817,-0.016479,0.011292,0.002258,-0.113281,-0.031250,-0.058594
16057507000,0.999817,-0.016479,0.011292,0.002258,-0.074219,-0.031250,-0.019531
16077414000,0.999817,-0.016479,0.011292,0.002258,-0.113281,-0.031250,-0.019531
16097441000,0.999817,-0.016479,0.011292,0.002258,-0.113281,-0.031250,-0.019531
16125612000,0.999817,-0.016541,0.011292,0.002258,-0.113281,-0.031250,-0.058594
16136171000,0.999817,-0.016541,0.011292,0.002258,-0.113281,0.007812,-0.058594
16156994000,0.999817,-0.016541,0.011292,0.002258,-0.074219,-0.031250,-0.058594
16182819000,0.999817,-0.016541,0.011292,0.002258,-0.113281,0.007812,-0.019531
16197434000,0.999817,-0.016541,0.011292,0.002258,-0.011719,0.031250,0.011719
16217244000,0.999817,-0.016541,0.011292,0.002258,-0.011719,-0.007812,-0.027344
16236979000,0.999817,-0.016541,0.011292,0.002258,-0.011719,0.031250,0.011719
16257080000,0.999817,-0.016541,0.011292,0.002258,-0.011719,-0.007812,0.011719
16285970000,0.999817,-0.016541,0.011292,0.002258,-0.011719,0.031250,0.011719
16296723000,0.999817,-0.016541,0.011292,0.002258,-0.011719,0.031250,0.011719
16317048000,0.999817,-0.016541,0.011292,0.002258,-0.011719,-0.007812,0.011719
16337467000,0.999817,-0.016541,0.011292,0.002258,-0.011719,0.031250,-0.027344
16363396000,0.999817,-0.016541,0.011353,0.002258,-0.011719,0.023438,0.011719
16376605000,0.999817,-0.016541,0.011353,0.002258,-0.050781,-0.015625,0.011719
16397179000,0.999817,-0.016541,0.011353,0.002258,-0.011719,-0.015625,0.011719
16416736000,0.999817,-0.016541,0.011353,0.002258,-0.011719,-0.015625,-0.027344
16436652000,0.999817,-0.016541,0.011353,0.002258,-0.011719,0.023438,0.011719
16465371000,0.999817,-0.016602,0.011353,0.002258,-0.003906,0.023438,0.011719
16475775000,0.999817,-0.016541,0.011353,0.002258,-0.003906,0.023438,0.011719
16497014000,0.999817,-0.016541,0.011353,0.002319,-0.003906,0.023438,-0.027344
16516682000,0.999817,-0.016541,0.011353,0.002258,-0.003906,-0.015625,0.011719
16545427000,0.999817,-0.016541,0.011353,0.002258,-0.003906,-0.015625,0.046875
16555273000,0.999817,-0.016541,0.011353,0.002258,-0.003906,0.023438,0.011719
16577520000,0.999817,-0.016541,0.011353,0.002258,-0.003906,0.023438,0.011719
16602103000,0.999817,-0.016479,0.011353,0.002258,0.035156,0.023438,0.011719
16616279000,0.999817,-0.016479,0.011353,0.002258,-0.003906,-0.023438,0.011719
16645181000,0.999817,-0.016479,0.011353,0.002258,-0.003906,0.015625,0.011719
16655283000,0.999817,-0.016541,0.011353,0.002258,-0.003906,-0.023438,-0.027344
16676670000,0.999817,-0.016541,0.011353,0.002258,-0.003906,-0.015625,0.011719
16696612000,0.999817,-0.016541,0.011414,0.002258,-0.003906,0.023438,0.011719
16724959000,0.999817,-0.016541,0.011353,0.002258,-0.003906,-0.015625,0.003906
16742167000,0.999817,-0.016541,0.011353,0.002258,-0.003906,0.023438,0.003906
16756208000,0.999817,-0.016541,0.011353,0.002258,-0.003906,0.023438,0.003906
16784584000,0.999817,-0.016541,0.011353,0.002258,-0.042969,0.015625,-0.035156
16805195000,0.999817,-0.016541,0.011353,0.002197,-0.003906,0.015625,0.003906
16815270000,0.999817,-0.016541,0.011353,0.002197,-0.003906,0.015625,0.003906
16837125000,0.999817,-0.016541,0.011353,0.002197,-0.003906,0.015625,0.003906
16864896000,0.999817,-0.016541,0.011353,0.002197,-0.003906,-0.023438,0.003906
16885005000,0.999817,-0.016541,0.011353,0.002258,-0.003906,-0.023438,0.003906
16900635000,0.999817,-0.016541,0.011353,0.002258,-0.003906,-0.023438,-0.035156
16928170000,0.999817,-0.016541,0.011414,0.002258,-0.003906,-0.023438,0.011719
16935217000,0.999817,-0.016541,0.011414,0.002258,-0.003906,0.015625,0.011719
16964186000,0.999817,-0.016541,0.011414,0.002258,0.003906,-0.023438,0.011719
16975308000,0.999817,-0.016541,0.011414,0.002197,0.003906,0.015625,-0.027344
17004819000,0.999817,-0.016479,0.011414,0.002258,-0.035156,0.023438,0.011719
17024166000,0.999817,-0.016479,0.011414,0.002197,0.003906,0.023438,0.011719
17048354000,0.999817,-0.016479,0.011414,0.002197,0.003906,-0.015625,0.011719
17055299000,0.999817,-0.016479,0.011414,0.002197,0.003906,0.023438,0.011719
17084933000,0.999817,-0.016479,0.011414,0.002197,0.003906,-0.015625,0.011719
17103582000,0.999817,-0.016479,0.011414,0.002197,0.003906,-0.015625,0.046875
17123363000,0.999817,-0.016479,0.011414,0.002197,0.003906,-0.015625,0.011719
17135175000,0.999817,-0.016479,0.011414,0.002197,0.003906,-0.015625,-0.027344
17163688000,0.999817,-0.016479,0.011414,0.002197,0.003906,0.023438,0.011719
17183537000,0.999817,-0.016479,0.011414,0.002197,0.003906,0.023438,-0.027344
17203986000,0.999817,-0.016479,0.011414,0.002197,0.003906,-0.015625,0.011719
17223698000,0.999817,-0.016479,0.011414,0.002197,0.003906,0.023438,-0.027344
17243798000,0.999817,-0.016479,0.011414,0.002197,0.003906,-0.015625,0.011719
17267914000,0.999817,-0.016479,0.011414,0.002197,-0.035156,0.023438,-0.027344
17283878000,0.999817,-0.016479,0.011414,0.002197,0.003906,-0.015625,-0.027344
17303099000,0.999817,-0.016479,0.011414,0.002197,-0.035156,-0.015625,-0.027344
17323807000,0.999817,-0.016479,0.011414,0.002197,0.003906,-0.015625,0.011719
17349397000,0.999817,-0.016479,0.011414,0.002197,0.003906,0.023438,0.011719
17363308000,0.999817,-0.016479,0.011414,0.002197,0.003906,0.015625,0.011719
17383186000,0.999817,-0.016479,0.011414,0.002197,0.042969,-0.023438,0.011719
17406881000,0.999817,-0.016479,0.011414,0.002197,-0.003906,-0.023438,0.011719
17422577000,0.999817,-0.016479,0.011414,0.002197,-0.003906,-0.015625,0.011719
17442615000,0.999817,-0.016479,0.011414,0.002197,-0.003906,-0.015625,0.011719
17464380000,0.999817,-0.016479,0.011414,0.002197,-0.003906,0.023438,-0.027344
17489817000,0.999817,-0.016479,0.011414,0.002197,-0.003906,0.023438,0.011719
17503268000,0.999817,-0.016479,0.011414,0.002197,-0.003906,-0.015625,0.011719
17522735000,0.999817,-0.016479,0.011414,0.002197,-0.003906,-0.015625,0.011719
17542802000,0.999817,-0.016479,0.011414,0.002197,-0.003906,0.023438,0.011719
17568229000,0.999817,-0.016479,0.011414,0.002197,-0.003906,-0.015625,0.011719
17582460000,0.999817,-0.016479,0.011414,0.002197,-0.003906,0.023438,0.011719
17604053000,0.999817,-0.016479,0.011414,0.002197,-0.003906,-0.015625,-0.027344
17622657000,0.999817,-0.016479,0.011414,0.002197,-0.003906,-0.015625,0.011719
17646540000,0.999817,-0.016479,0.011414,0.002197,-0.003906,0.023438,0.011719
17662481000,0.999817,-0.016479,0.011414,0.002197,-0.042969,0.023438,0.011719
17681987000,0.999817,-0.016479,0.011414,0.002197,-0.003906,0.023438,0.011719
17701984000,0.999817,-0.016479,0.011414,0.002197,-0.003906,-0.015625,0.011719
17726222000,0.999817,-0.016479,0.011414,0.002197,-0.003906,0.023438,0.011719
17747004000,0.999817,-0.016479,0.011414,0.002197,-0.003906,-0.023438,0.011719
17764078000,0.999817,-0.016479,0.011414,0.002197,0.035156,-0.023438,0.011719
17781935000,0.999817,-0.016479,0.011414,0.002197,-0.003906,-0.023438,0.011719
17802520000,0.999817,-0.016479,0.011414,0.002197,-0.003906,-0.023438,0.011719
17822945000,0.999817,-0.016479,0.011414,0.002197,-0.003906,-0.023438,-0.027344
17841903000,0.999817,-0.016479,0.011414,0.002197,0.035156,-0.015625,0.046875
17864639000,0.999817,-0.016479,0.011414,0.002197,-0.003906,0.023438,0.046875
17887216000,0.999817,-0.016479,0.011414,0.002197,-0.003906,-0.015625,-0.027344
17901432000,0.999817,-0.016479,0.011414,0.002197,-0.003906,0.023438,0.011719
17924898000,0.999817,-0.016479,0.011414,0.002197,-0.003906,-0.015625,0.011719
17941531000,0.999817,-0.016479,0.011414,0.002197,-0.003906,-0.015625,0.011719
17961296000,0.999817,-0.016479,0.011414,0.002197,-0.003906,0.023438,-0.027344
17992043000,0.999817,-0.016479,0.011414,0.002197,-0.003906,-0.015625,0.011719
18001243000,0.999817,-0.016479,0.011414,0.002197,-0.003906,0.023438,0.011719
18021196000,0.999817,-0.016479,0.011414,0.002197,-0.003906,0.023438,0.011719
18041088000,0.999817,-0.016479,0.011414,0.002197,-0.003906,-0.015625,0.011719
18062296000,0.999817,-0.016479,0.011414,0.002197,-0.003906,0.023438,0.046875
18085148000,0.999817,-0.016479,0.011414,0.002197,-0.003906,0.023438,0.011719
18101131000,0.999817,-0.016479,0.011414,0.002197,-0.003906,0.015625,0.011719
18123383000,0.999817,-0.016479,0.011414,0.002197,-0.003906,-0.023438,0.011719
18144613000,0.999817,-0.016479,0.011414,0.002197,-0.003906,-0.023438,0.011719
18161064000,0.999817,-0.016479,0.011414,0.002197,-0.003906,0.015625,-0.027344
18181448000,0.999817,-0.016479,0.011414,0.002197,0.035156,0.015625,-0.027344
18210832000,0.999817,-0.016479,0.011414,0.002197,-0.042969,0.015625,-0.027344
18221106000,0.999817,-0.016479,0.011414,0.002197,-0.003906,-0.023438,0.011719
18251018000,0.999817,-0.016479,0.011414,0.002197,-0.003906,-0.023438,0.019531
18267177000,0.999817,-0.016479,0.011414,0.002197,-0.003906,0.015625,0.019531
18280053000,0.999817,-0.016479,0.011414,0.002197,-0.003906,-0.023438,-0.019531
18302429000,0.999817,-0.016479,0.011414,0.002197,-0.003906,-0.023438,0.019531
18320551000,0.999817,-0.016479,0.011414,0.002197,-0.003906,0.015625,0.019531
18340355000,0.999817,-0.016479,0.011414,0.002197,-0.003906,0.015625,0.019531
18360778000,0.999817,-0.016479,0.011414,0.002197,-0.003906,-0.023438,0.011719
18390588000,0.999817,-0.016479,0.011414,0.002197,-0.003906,0.015625,0.011719
18399992000,0.999817,-0.016479,0.011414,0.002197,-0.003906,0.015625,-0.027344
18422008000,0.999817,-0.016479,0.011414,0.002197,-0.003906,0.015625,0.011719
18446289000,0.999817,-0.016479,0.011414,0.002197,-0.003906,0.015625,-0.027344
18460285000,0.999817,-0.016479,0.011414,0.002197,-0.042969,-0.023438,0.011719
18490842000,0.999817,-0.016479,0.011414,0.002197,-0.003906,-0.023438,-0.027344
18504023000,0.999817,-0.016479,0.011414,0.002197,-0.003906,-0.023438,0.011719
18520234000,0.999817,-0.016479,0.011414,0.002197,0.035156,0.015625,0.046875
18539931000,0.999817,-0.016479,0.011475,0.002197,-0.003906,-0.023438,0.011719
18559944000,0.999817,-0.016357,0.011353,0.002319,1.675781,0.015625,-0.027344
18585376000,0.999817,-0.016663,0.011536,0.002014,2.449219,-0.023438,0.046875
18599740000,0.999817,-0.016479,0.011475,0.002136,-0.156250,-0.246094,-0.250000
18619540000,0.999817,-0.016479,0.011536,0.002136,-0.511719,0.089844,-0.097656
18641469000,0.999817,-0.016418,0.011536,0.002136,-0.546875,0.050781,0.019531
18669630000,0.999817,-0.016541,0.011597,0.002075,0.515625,-0.175781,-0.058594
18679247000,0.999817,-0.016479,0.011597,0.002075,0.210938,0.089844,0.093750
18699284000,0.999817,-0.016479,0.011719,0.002014,0.316406,-0.023438,0.171875
18719633000,0.999817,-0.016541,0.011658,0.002014,0.234375,0.015625,-0.058594
18739969000,0.999817,-0.016724,0.011658,0.002014,0.386719,-0.101562,-0.058594
18759494000,0.999817,-0.016479,0.011780,0.002014,0.378906,-0.054688,-0.027344
18779842000,0.999817,-0.016479,0.011719,0.001953,0.156250,0.207031,0.011719
18799043000,0.999817,-0.016418,0.011841,0.001892,0.148438,0.050781,0.085938
18825957000,0.999817,-0.016296,0.011841,0.001892,0.109375,-0.062500,-0.144531
18839012000,0.999817,-0.016357,0.011902,0.001831,-0.089844,0.050781,0.085938
18859108000,0.999817,-0.016296,0.011902,0.001770,-0.511719,0.015625,0.125000
18881802000,0.999817,-0.016479,0.011963,0.001709,-0.089844,-0.062500,-0.218750
18903966000,0.999817,-0.016357,0.011963,0.001770,-0.171875,-0.175781,-0.105469
18918704000,0.999817,-0.016357,0.011963,0.001709,-0.144531,0.050781,0.011719
18938648000,0.999817,-0.016357,0.012085,0.001709,-0.136719,0.015625,0.125000
18958727000,0.999817,-0.016296,0.012024,0.001709,-0.519531,-0.023438,-0.105469
18978435000,0.999817,-0.016296,0.012024,0.001648,-0.136719,0.042969,0.011719
19000548000,0.999817,-0.016296,0.012085,0.001648,-0.105469,0.007812,-0.027344
19018389000,0.999817,-0.016296,0.012085,0.001587,-0.410156,0.015625,0.046875
19038394000,0.999817,-0.016479,0.012085,0.001587,-0.218750,-0.101562,0.164062
19059492000,0.999817,-0.016235,0.012085,0.001526,0.039062,-0.062500,0.011719
19085404000,0.999817,-0.016296,0.012085,0.001526,-0.378906,0.042969,0.011719
19098503000,0.999817,-0.016296,0.012085,0.001526,-0.343750,0.007812,0.046875
19118608000,0.999817,-0.016235,0.012146,0.001526,-0.074219,-0.070312,0.046875
19148801000,0.999817,-0.015930,0.012207,0.001465,-0.343750,-0.070312,-0.144531
19164487000,0.999817,-0.015991,0.012268,0.001404,-0.496094,0.007812,0.085938
19178109000,0.999817,-0.015930,0.012207,0.001404,-1.230469,0.007812,0.085938
19199391000,0.999817,-0.015991,0.012329,0.001465,-1.078125,0.082031,0.277344
19219076000,0.999817,-0.016113,0.012268,0.001404,-1.156250,-0.070312,-0.144531
19248540000,0.999817,-0.016052,0.012207,0.001404,0.003906,-0.070312,0.011719
19257997000,0.999817,-0.016052,0.012207,0.001404,-0.152344,-0.031250,0.011719
19278452000,0.999817,-0.016052,0.012207,0.001404,-0.113281,0.007812,0.046875
19308086000,0.999817,-0.016052,0.012207,0.001404,-0.152344,0.007812,0.011719
19317803000,0.999817,-0.016052,0.012207,0.001404,-0.113281,-0.031250,0.011719
19338222000,0.999817,-0.016052,0.012146,0.001404,-0.152344,-0.031250,0.011719
19357563000,0.999817,-0.016113,0.012146,0.001404,-0.113281,0.007812,0.011719
19378365000,0.999817,-0.016052,0.012146,0.001404,-0.113281,0.007812,0.011719
19397875000,0.999817,-0.016052,0.012146,0.001404,-0.144531,0.007812,-0.027344
19427813000,0.999817,-0.016052,0.012146,0.001404,-0.144531,0.007812,0.011719
19437800000,0.999817,-0.016052,0.012146,0.001404,-0.105469,0.007812,0.011719
19467437000,0.999817,-0.016052,0.012146,0.001404,-0.105469,-0.031250,0.011719
19482892000,0.999817,-0.016052,0.012146,0.001404,-0.144531,-0.031250,-0.027344
19497928000,0.999817,-0.016052,0.012146,0.001404,-0.105469,-0.031250,0.011719
19517499000,0.999817,-0.016052,0.012146,0.001404,-0.144531,-0.031250,0.011719
19538558000,0.999817,-0.016052,0.012146,0.001404,-0.144531,-0.031250,0.011719
19563163000,0.999817,-0.016052,0.012146,0.001343,-0.136719,-0.031250,0.011719
19577829000,0.999817,-0.016052,0.012085,0.001343,-0.097656,0.007812,-0.027344
19597642000,0.999817,-0.016113,0.012085,0.001404,0.019531,0.023438,0.003906
19627124000,0.999817,-0.016113,0.012085,0.001343,0.019531,0.023438,-0.035156
19637417000,0.999817,-0.016113,0.012085,0.001404,-0.019531,0.023438,0.003906
19657332000,0.999817,-0.016113,0.012085,0.001343,-0.019531,0.023438,0.003906
19677714000,0.999817,-0.016113,0.012085,0.001404,0.019531,-0.015625,0.003906
19709033000,0.999817,-0.016113,0.012085,0.001404,-0.019531,-0.023438,-0.035156
19723777000,0.999817,-0.016113,0.012085,0.001343,0.019531,-0.015625,0.003906
19737108000,0.999817,-0.016113,0.012085,0.001404,0.019531,0.015625,-0.035156
19757750000,0.999817,-0.016113,0.012085,0.001404,-0.019531,0.015625,0.003906
19777403000,0.999817,-0.016113,0.012085,0.001404,-0.019531,0.015625,0.003906
19807605000,0.999817,-0.016174,0.012085,0.001404,-0.019531,0.015625,-0.035156
19816776000,0.999817,-0.016174,0.012085,0.001404,0.019531,-0.023438,0.003906
19837346000,0.999817,-0.016174,0.012085,0.001404,-0.019531,-0.023438,0.011719
19866564000,0.999817,-0.016174,0.012085,0.001404,0.019531,0.015625,-0.027344
19876589000,0.999817,-0.016174,0.012085,0.001404,-0.019531,0.015625,0.011719
19897079000,0.999817,-0.016174,0.012085,0.001343,0.019531,0.015625,0.011719
19917101000,0.999817,-0.016235,0.012085,0.001343,-0.019531,0.015625,0.011719
19943177000,0.999817,-0.016235,0.012085,0.001343,0.019531,0.015625,0.011719
19956563000,0.999817,-0.016235,0.012085,0.001343,-0.019531,-0.023438,0.011719
19977032000,0.999817,-0.016235,0.012085,0.001343,-0.019531,0.015625,0.011719
19997054000,0.999817,-0.016235,0.012085,0.001343,-0.019531,0.007812,-0.027344
20026351000,0.999817,-0.016235,0.012085,0.001343,-0.019531,0.007812,-0.027344
20036222000,0.999817,-0.016235,0.012085,0.001343,0.019531,-0.031250,0.011719
20057026000,0.999817,-0.016235,0.012085,0.001343,-0.011719,-0.031250,0.011719
20085891000,0.999817,-0.016296,0.012085,0.001343,-0.011719,-0.031250,-0.027344
20106169000,0.999817,-0.016296,0.012085,0.001343,-0.011719,0.007812,0.011719
20124646000,0.999817,-0.016296,0.012085,0.001404,-0.011719,0.007812,0.011719
20136649000,0.999817,-0.016296,0.012085,0.001404,0.027344,-0.023438,-0.027344
20156891000,0.999817,-0.016296,0.012085,0.001404,-0.011719,0.015625,0.011719
20176618000,0.999817,-0.016296,0.012085,0.001343,-0.011719,0.015625,0.011719
20205997000,0.999817,-0.016296,0.012146,0.001404,0.027344,-0.023438,0.011719
20215815000,0.999817,-0.016296,0.012146,0.001343,0.027344,-0.023438,0.011719
20236704000,0.999817,-0.016357,0.012085,0.001343,0.027344,-0.023438,-0.027344
20265366000,0.999817,-0.016357,0.012146,0.001343,-0.011719,0.015625,0.011719
20275284000,0.999817,-0.016357,0.012085,0.001343,0.027344,0.015625,-0.027344
20296689000,0.999817,-0.016357,0.012146,0.001343,-0.011719,0.015625,-0.019531
20317204000,0.999817,-0.016357,0.012146,0.001282,-0.011719,-0.023438,0.019531
20336976000,0.999817,-0.016357,0.012146,0.001282,0.027344,-0.023438,-0.019531
20362308000,0.999817,-0.016357,0.012146,0.001282,-0.011719,-0.023438,-0.019531
20376241000,0.999817,-0.016418,0.012146,0.001282,-0.011719,0.015625,0.019531
20396654000,0.999817,-0.016357,0.012146,0.001282,-0.011719,-0.023438,-0.019531
20416248000,0.999817,-0.016357,0.012085,0.001282,-0.011719,-0.023438,0.019531
20436706000,0.999817,-0.016357,0.012146,0.001282,-0.011719,0.015625,0.019531
20457475000,0.999817,-0.016296,0.012146,0.001282,-0.011719,-0.023438,0.019531
20484894000,0.999817,-0.016357,0.012146,0.001282,0.027344,0.015625,-0.019531
20495664000,0.999817,-0.016296,0.012146,0.001282,0.027344,-0.023438,0.019531
20527026000,0.999817,-0.016296,0.012146,0.001282,0.019531,-0.015625,0.046875
20535352000,0.999817,-0.016357,0.012146,0.001282,-0.019531,-0.015625,-0.027344
20557206000,0.999817,-0.016296,0.012146,0.001282,-0.019531,-0.015625,-0.027344
20576160000,0.999817,-0.016296,0.012146,0.001221,-0.019531,0.023438,0.011719
20609611000,0.999817,-0.016296,0.012146,0.001221,0.019531,0.023438,-0.027344
20624804000,0.999817,-0.016296,0.012146,0.001221,0.019531,0.023438,0.011719
20644337000,0.999817,-0.016296,0.012146,0.001221,0.019531,0.023438,-0.027344
20664584000,0.999817,-0.016296,0.012146,0.001221,-0.019531,-0.015625,0.011719
20689668000,0.999817,-0.016296,0.012146,0.001221,-0.019531,0.023438,0.011719
20704249000,0.999817,-0.016296,0.012146,0.001221,-0.019531,0.015625,0.011719
20724628000,0.999817,-0.016296,0.012146,0.001221,0.019531,0.015625,0.011719
20744071000,0.999817,-0.016296,0.012146,0.001221,-0.019531,0.015625,-0.027344
20767471000,0.999817,-0.016296,0.012146,0.001221,-0.019531,0.015625,0.011719
20783690000,0.999817,-0.016296,0.012146,0.001221,0.019531,0.015625,0.011719
20804352000,0.999817,-0.016296,0.012146,0.001221,0.019531,0.015625,0.011719
20823748000,0.999817,-0.016296,0.012146,0.001221,-0.019531,0.015625,0.011719
20849011000,0.999817,-0.016296,0.012146,0.001221,-0.019531,0.015625,0.011719
20863890000,0.999817,-0.016296,0.012146,0.001221,0.019531,-0.023438,0.011719
20884030000,0.999817,-0.016296,0.012146,0.001221,-0.019531,0.015625,-0.027344
20903627000,0.999817,-0.016296,0.012146,0.001221,-0.019531,-0.023438,-0.027344
20929761000,0.999817,-0.016296,0.012146,0.001221,-0.019531,0.015625,-0.027344
20944027000,0.999817,-0.016296,0.012146,0.001221,0.019531,0.015625,-0.027344
20964380000,0.999817,-0.016296,0.012146,0.001221,0.019531,-0.023438,-0.027344
20983615000,0.999817,-0.016296,0.012146,0.001221,0.019531,-0.023438,0.011719
21006100000,0.999817,-0.016296,0.012146,0.001221,-0.019531,0.015625,0.011719
21023477000,0.999817,-0.016296,0.012146,0.001221,-0.019531,0.015625,0.011719
21043445000,0.999817,-0.016296,0.012146,0.001221,0.019531,0.015625,0.011719
21062928000,0.999817,-0.016296,0.012146,0.001221,-0.019531,0.015625,0.011719
21089288000,0.999817,-0.016296,0.012146,0.001221,0.019531,-0.023438,0.011719
21104904000,0.999817,-0.016296,0.012146,0.001221,0.019531,-0.023438,0.011719
21123386000,0.999817,-0.016296,0.012146,0.001221,0.019531,-0.023438,0.046875
21144554000,0.999817,-0.016296,0.012146,0.001221,-0.019531,0.015625,0.011719
21168664000,0.999817,-0.016296,0.012146,0.001221,-0.019531,0.015625,0.003906
21183134000,0.999817,-0.016296,0.012146,0.001221,-0.019531,-0.023438,0.003906
21202678000,0.999817,-0.016296,0.012146,0.001221,-0.019531,0.015625,0.003906
21223948000,0.999817,-0.016296,0.012146,0.001221,-0.019531,0.015625,0.003906
21243167000,0.999817,-0.016296,0.012146,0.001221,-0.019531,0.015625,0.003906
21262910000,0.999817,-0.016296,0.012146,0.001221,-0.019531,0.015625,0.003906
21286218000,0.999817,-0.016296,0.012146,0.001221,0.019531,-0.023438,0.003906
21303025000,0.999817,-0.016296,0.012146,0.001221,-0.019531,0.015625,0.003906
21322928000,0.999817,-0.016296,0.012146,0.001221,-0.019531,0.015625,0.003906
21342709000,0.999817,-0.016296,0.012146,0.001221,-0.019531,-0.023438,0.003906
21364463000,0.999817,-0.016296,0.012146,0.001221,-0.019531,0.015625,0.003906
21382104000,0.999817,-0.016296,0.012146,0.001221,-0.019531,0.015625,0.003906
21402885000,0.999817,-0.016296,0.012146,0.001221,-0.019531,0.015625,0.003906
21425676000,0.999817,-0.016296,0.012146,0.001221,-0.019531,-0.023438,0.003906
21442404000,0.999817,-0.016296,0.012146,0.001221,-0.019531,0.015625,0.003906
21462362000,0.999817,-0.016296,0.012146,0.001221,-0.019531,-0.023438,0.003906
21486173000,0.999817,-0.016296,0.012146,0.001221,-0.019531,0.015625,0.003906
21501862000,0.999817,-0.016296,0.012146,0.001221,-0.019531,0.015625,0.003906
21522495000,0.999817,-0.016296,0.012146,0.001221,-0.019531,-0.023438,0.003906
21546370000,0.999817,-0.016296,0.012146,0.001221,-0.019531,0.015625,0.003906
21562154000,0.999817,-0.016296,0.012146,0.001221,0.019531,0.015625,-0.035156
21582125000,0.999817,-0.016296,0.012146,0.001221,0.027344,0.015625,0.003906
21602324000,0.999817,-0.016296,0.012146,0.001221,-0.011719,0.015625,0.003906
21625068000,0.999817,-0.016296,0.012146,0.001221,-0.011719,-0.023438,0.003906
21642002000,0.999817,-0.016296,0.012146,0.001221,-0.011719,0.015625,0.011719
21661484000,0.999817,-0.016296,0.012146,0.001221,-0.011719,-0.023438,0.011719
21681819000,0.999817,-0.016296,0.012146,0.001221,-0.011719,0.015625,0.003906
21704176000,0.999817,-0.016296,0.012146,0.001221,0.027344,0.015625,-0.035156
21726080000,0.999817,-0.016296,0.012146,0.001221,0.027344,0.015625,0.011719
21741220000,0.999817,-0.016296,0.012146,0.001221,-0.011719,-0.023438,-0.027344
21762329000,0.999817,-0.016296,0.012146,0.001221,-0.011719,0.015625,0.011719
21785201000,0.999817,-0.016296,0.012146,0.001221,-0.011719,-0.023438,0.011719
21800974000,0.999817,-0.016296,0.012146,0.001221,-0.011719,0.015625,0.011719
21821598000,0.999817,-0.016296,0.012146,0.001221,-0.011719,-0.023438,0.003906
21851270000,0.999817,-0.016296,0.012146,0.001221,-0.011719,0.015625,0.003906
21867794000,0.999817,-0.016296,0.012146,0.001221,-0.011719,0.015625,0.003906
21881858000,0.999817,-0.016296,0.012146,0.001221,0.027344,0.015625,0.003906
21901190000,0.999817,-0.016296,0.012146,0.001221,-0.011719,-0.023438,-0.035156
21931083000,0.999817,-0.016296,0.012146,0.001221,-0.011719,0.015625,0.003906
21941201000,0.999817,-0.016296,0.012146,0.001221,0.027344,-0.023438,0.003906
21961906000,0.999817,-0.016296,0.012146,0.001221,0.027344,-0.023438,-0.035156
21980885000,0.999817,-0.016296,0.012146,0.001221,-0.011719,0.015625,0.003906
22010961000,0.999817,-0.016296,0.012146,0.001221,-0.011719,0.015625,0.011719
22020589000,0.999817,-0.016296,0.012146,0.001221,-0.011719,0.015625,0.011719
22040649000,0.999817,-0.016296,0.012146,0.001221,-0.011719,0.015625,0.003906
22060435000,0.999817,-0.016296,0.012146,0.001221,-0.011719,0.015625,-0.035156
22084199000,0.999817,-0.016296,0.012146,0.001221,-0.011719,-0.023438,0.003906
22100241000,0.999817,-0.016296,0.012146,0.001221,0.027344,0.015625,0.003906
22122287000,0.999817,-0.016296,0.012146,0.001221,-0.011719,0.007812,0.003906
22145662000,0.999817,-0.016296,0.012146,0.001221,0.027344,-0.031250,-0.035156
22160352000,0.999817,-0.016296,0.012146,0.001221,0.027344,0.007812,0.011719
22180161000,0.999817,-0.016357,0.012146,0.001282,-0.019531,-0.031250,0.003906
22209793000,0.999817,-0.016357,0.012146,0.001343,2.570312,0.082031,0.003906
22225868000,0.999817,-0.016541,0.012207,0.001282,1.511719,0.082031,0.164062
22240506000,0.999817,-0.016418,0.012207,0.001282,0.125000,-0.148438,-0.074219
22260682000,0.999817,-0.016357,0.012207,0.001282,-0.800781,-0.031250,-0.113281
22286503000,0.999817,-0.016296,0.012268,0.001282,0.156250,-0.109375,-0.074219
22299582000,0.999817,-0.016418,0.012268,0.001282,1.105469,0.042969,-0.027344
22323823000,0.999817,-0.016174,0.012268,0.001282,0.945312,-0.109375,0.125000
22339549000,0.999817,-0.016296,0.012329,0.001282,0.257812,0.000000,0.085938
22359348000,0.999817,-0.016235,0.012390,0.001221,0.171875,-0.078125,-0.066406
22379989000,0.999817,-0.016235,0.012390,0.001221,-0.210938,0.042969,0.164062
22406756000,0.999817,-0.016479,0.012390,0.001221,-0.171875,0.042969,0.046875
22419916000,0.999756,-0.016541,0.012451,0.001221,-0.179688,-0.031250,0.164062
22439958000,0.999817,-0.016418,0.012329,0.001221,-0.332031,-0.109375,-0.074219
22460660000,0.999817,-0.016418,0.012451,0.001221,0.003906,0.042969,0.039062
22486467000,0.999817,-0.016296,0.012390,0.001221,-0.265625,0.121094,0.003906
22500003000,0.999817,-0.016235,0.012512,0.001221,-0.273438,0.007812,-0.113281
22519092000,0.999817,-0.016174,0.012573,0.001221,-0.234375,-0.070312,-0.074219
22539937000,0.999817,-0.016113,0.012573,0.001221,-0.664062,0.007812,0.078125
22558959000,0.999817,-0.016174,0.012695,0.001282,-0.742188,0.000000,0.078125
22588758000,0.999817,-0.016113,0.012695,0.001282,-1.351562,-0.078125,0.156250
22599566000,0.999817,-0.016113,0.012695,0.001282,-0.933594,-0.031250,0.003906
22619084000,0.999817,-0.015991,0.012695,0.001282,-0.441406,0.000000,-0.074219
22639777000,0.999817,-0.015991,0.012756,0.001221,-0.136719,0.000000,0.003906
22658775000,0.999817,-0.015991,0.012756,0.001221,0.062500,-0.039062,-0.035156
22689040000,0.999817,-0.015991,0.012817,0.001221,0.179688,-0.039062,0.078125
22698605000,0.999817,-0.015991,0.012756,0.001221,0.371094,-0.039062,-0.035156
22719422000,0.999817,-0.015930,0.012817,0.001221,0.101562,0.000000,0.078125
22738830000,0.999817,-0.015869,0.012817,0.001160,-0.281250,0.000000,0.039062
22769014000,0.999817,-0.015869,0.012817,0.001160,-0.968750,-0.039062,-0.035156
22781415000,0.999817,-0.015869,0.012817,0.001160,-0.976562,0.000000,0.039062
22799053000,0.999817,-0.015930,0.012817,0.001160,-0.902344,-0.039062,-0.035156
22828650000,0.999817,-0.015930,0.012817,0.001221,-0.128906,0.000000,0.003906
22844168000,0.999817,-0.015930,0.012817,0.001221,-0.128906,-0.039062,0.003906
22858768000,0.999817,-0.015930,0.012817,0.001221,-0.128906,-0.039062,0.003906
22878777000,0.999817,-0.015869,0.012817,0.001221,-0.089844,0.000000,-0.035156
22900329000,0.999817,-0.015869,0.012817,0.001221,-0.128906,0.000000,0.039062
22925180000,0.999817,-0.015869,0.012817,0.001221,-0.128906,0.000000,0.003906
22937824000,0.999817,-0.015869,0.012817,0.001221,-0.089844,-0.039062,-0.035156
22958128000,0.999817,-0.015869,0.012756,0.001221,0.832031,-0.039062,-0.035156
22987505000,0.999817,-0.015686,0.012756,0.001221,-0.164062,0.000000,-0.035156
22998553000,0.999817,-0.015747,0.012756,0.001221,-0.625000,-0.007812,0.003906
23018318000,0.999817,-0.015747,0.012817,0.001221,-0.968750,-0.046875,-0.035156
23038222000,0.999817,-0.015747,0.012817,0.001221,-0.433594,0.027344,0.003906
23067557000,0.999817,-0.015747,0.012817,0.001221,-0.089844,-0.007812,0.003906
23077836000,0.999817,-0.015747,0.012817,0.001221,-0.011719,-0.007812,0.003906
23098633000,0.999817,-0.015747,0.012817,0.001221,0.292969,-0.046875,-0.035156
23127589000,0.999817,-0.015686,0.012756,0.001160,0.027344,-0.007812,-0.035156
23138071000,0.999817,-0.015625,0.012756,0.001160,-0.128906,-0.085938,-0.035156
23157564000,0.999817,-0.015625,0.012756,0.001160,-0.703125,-0.007812,-0.035156
23178231000,0.999817,-0.015564,0.012695,0.001160,-0.734375,-0.164062,-0.035156
23199114000,0.999817,-0.015564,0.012695,0.001160,-0.617188,-0.007812,0.003906
23217700000,0.999817,-0.015564,0.012695,0.001160,-0.128906,-0.007812,0.003906
23237546000,0.999817,-0.015564,0.012695,0.001160,0.062500,-0.007812,0.003906
23263448000,0.999817,-0.015564,0.012695,0.001160,0.445312,-0.007812,0.003906
23277262000,0.999817,-0.015625,0.012756,0.001099,-0.578125,-0.007812,-0.035156
23297582000,0.999817,-0.015625,0.012756,0.001099,-0.734375,0.027344,0.003906
23326946000,0.999817,-0.015625,0.012756,0.001099,-0.074219,-0.007812,0.003906
23337115000,0.999817,-0.015625,0.012756,0.001099,-0.113281,-0.007812,0.003906
23357650000,0.999817,-0.015564,0.012756,0.001099,-0.113281,-0.007812,0.003906
23377995000,0.999817,-0.015564,0.012756,0.001099,-0.113281,-0.007812,0.003906
23407144000,0.999817,-0.015625,0.012756,0.001099,0.539062,-0.007812,0.003906
23417090000,0.999817,-0.015625,0.012756,0.001099,0.042969,-0.007812,0.003906
23437648000,0.999817,-0.015564,0.012756,0.001099,-0.648438,-0.046875,-0.035156
23457132000,0.999817,-0.015564,0.012695,0.001099,-0.304688,-0.007812,-0.035156
23477569000,0.999817,-0.015564,0.012695,0.001099,-0.113281,0.000000,0.003906
23506483000,0.999817,-0.015564,0.012695,0.001099,-0.113281,0.000000,0.003906
23526331000,0.999817,-0.015564,0.012695,0.001099,-0.113281,0.000000,-0.035156
23536524000,0.999817,-0.015564,0.012695,0.001099,-0.113281,0.000000,0.003906
23557284000,0.999817,-0.015564,0.012695,0.001099,-0.113281,0.000000,0.003906
23577209000,0.999817,-0.015564,0.012695,0.001099,-0.113281,0.000000,0.003906
23606226000,0.999817,-0.015564,0.012695,0.001099,-0.105469,0.000000,0.003906
23616391000,0.999817,-0.015625,0.012695,0.001160,-0.105469,0.000000,0.003906
23646089000,0.999817,-0.015625,0.012695,0.001160,-0.105469,0.000000,0.003906
23656233000,0.999817,-0.015625,0.012695,0.001160,-0.105469,0.000000,0.003906
23677074000,0.999817,-0.015625,0.012695,0.001160,-0.105469,0.000000,0.003906
23706330000,0.999817,-0.015625,0.012695,0.001160,-0.105469,0.000000,-0.035156
23716113000,0.999817,-0.015625,0.012695,0.001160,-0.105469,0.000000,0.003906
23737011000,0.999817,-0.015564,0.012695,0.001160,-0.097656,0.000000,0.003906
23756791000,0.999817,-0.015625,0.012695,0.001160,-0.132812,0.000000,0.003906
23778036000,0.999817,-0.015625,0.012756,0.001160,-0.097656,0.000000,0.003906
23805470000,0.999817,-0.015625,0.012756,0.001160,-0.097656,0.000000,0.011719
23815659000,0.999817,-0.015625,0.012756,0.001160,-0.097656,-0.039062,0.011719
23837967000,0.999817,-0.015625,0.012695,0.001160,-0.097656,0.000000,-0.027344
23855266000,0.999817,-0.015625,0.012695,0.001160,-0.097656,0.000000,-0.027344
23877939000,0.999817,-0.015625,0.012695,0.001160,-0.089844,0.000000,0.011719
23901363000,0.999817,-0.015625,0.012695,0.001160,-0.089844,-0.039062,0.011719
23916895000,0.999817,-0.015625,0.012634,0.001160,-0.089844,0.000000,-0.027344
23937093000,0.999817,-0.015625,0.012695,0.001160,-0.089844,0.000000,-0.027344
23957057000,0.999817,-0.015564,0.012695,0.001099,-0.089844,0.000000,0.011719
23982065000,0.999817,-0.015564,0.012695,0.001160,-0.089844,0.000000,0.011719
23997310000,0.999817,-0.015564,0.012695,0.001099,-0.089844,0.000000,0.011719
24017122000,0.999817,-0.015564,0.012695,0.001099,-0.089844,0.000000,0.011719
24037488000,0.999817,-0.015564,0.012695,0.001099,-0.082031,-0.039062,0.011719
24062014000,0.999817,-0.015503,0.012695,0.001099,-0.003906,0.007812,0.011719
24075278000,0.999817,-0.015564,0.012756,0.001099,-0.003906,0.007812,0.011719
24102483000,0.999817,-0.015564,0.012695,0.001099,-0.003906,0.007812,0.011719
24118540000,0.999817,-0.015564,0.012695,0.001099,-0.003906,0.007812,0.046875
24136648000,0.999817,-0.015564,0.012695,0.001099,-0.003906,0.007812,0.011719
24156869000,0.999817,-0.015564,0.012756,0.001099,-0.003906,0.007812,0.011719
24177086000,0.999817,-0.015564,0.012756,0.001038,0.003906,-0.031250,-0.027344
24203032000,0.999817,-0.015564,0.012756,0.001038,0.003906,-0.031250,0.011719
24222582000,0.999817,-0.015625,0.012756,0.001038,0.003906,0.007812,0.011719
24236580000,0.999817,-0.015625,0.012756,0.001038,0.003906,0.007812,0.011719
24257065000,0.999817,-0.015564,0.012756,0.001038,0.003906,0.007812,0.011719
24279127000,0.999817,-0.015625,0.012756,0.001099,0.003906,0.007812,0.011719
24303119000,0.999817,-0.015625,0.012756,0.001038,0.042969,0.007812,0.011719
24320003000,0.999817,-0.015625,0.012756,0.001099,-0.003906,0.007812,0.011719
24337279000,0.999817,-0.015625,0.012695,0.001038,-0.011719,0.007812,0.011719
24361081000,0.999817,-0.015625,0.012695,0.001099,-0.011719,0.007812,0.011719
24377349000,0.999817,-0.015625,0.012695,0.001099,-0.011719,0.007812,0.011719
24396655000,0.999817,-0.015625,0.012695,0.001099,-0.011719,0.007812,0.011719
24419775000,0.999817,-0.015625,0.012756,0.001099,-0.011719,0.007812,-0.027344
24442046000,0.999817,-0.015625,0.012756,0.001099,-0.011719,0.000000,0.011719
24456631000,0.999817,-0.015686,0.012756,0.001099,-0.003906,-0.031250,0.011719
24476602000,0.999817,-0.015686,0.012756,0.001038,-0.003906,0.007812,0.011719
24498076000,0.999817,-0.015686,0.012695,0.001099,-0.003906,0.007812,0.011719
24524248000,0.999817,-0.015686,0.012695,0.001099,-0.003906,0.007812,0.011719
24536268000,0.999817,-0.015625,0.012695,0.001038,-0.003906,0.007812,-0.027344
24557017000,0.999817,-0.015686,0.012695,0.001038,-0.003906,0.007812,0.011719
24577937000,0.999817,-0.015686,0.012695,0.001038,-0.003906,0.007812,0.011719
24602340000,0.999817,-0.015686,0.012695,0.001038,-0.003906,0.007812,0.011719
24624817000,0.999817,-0.015686,0.012695,0.001038,-0.003906,0.007812,0.011719
24637136000,0.999817,-0.015625,0.012695,0.001038,-0.003906,0.007812,0.046875
24657883000,0.999817,-0.015564,0.012695,0.001038,-0.003906,0.007812,0.011719
24676642000,0.999817,-0.015625,0.012695,0.001038,0.035156,0.007812,-0.027344
24697409000,0.999817,-0.015625,0.012695,0.001038,-0.003906,0.007812,0.011719
24717146000,0.999817,-0.015625,0.012695,0.001038,-0.003906,0.007812,0.011719
24741170000,0.999817,-0.015625,0.012695,0.001099,-0.003906,0.007812,0.011719
24762208000,0.999817,-0.015625,0.012695,0.001038,-0.003906,0.007812,0.011719
24777632000,0.999817,-0.015686,0.012695,0.001038,-0.039062,0.000000,0.011719
24797182000,0.999817,-0.015686,0.012695,0.001038,-0.003906,-0.039062,0.011719
24818664000,0.999817,-0.015686,0.012695,0.001099,-0.003906,0.000000,0.011719
24842854000,0.999817,-0.015686,0.012695,0.001099,-0.003906,0.000000,0.011719
24856867000,0.999817,-0.015686,0.012695,0.001099,-0.003906,0.007812,0.011719
24878697000,0.999817,-0.015686,0.012695,0.001099,-0.003906,0.007812,-0.027344
24902176000,0.999817,-0.015686,0.012695,0.001099,-0.003906,0.007812,0.011719
24923943000,0.999817,-0.015686,0.012695,0.001099,-0.039062,0.007812,0.011719
24947341000,0.999817,-0.015747,0.012695,0.001099,-0.003906,0.007812,0.011719
24963108000,0.999817,-0.015747,0.012695,0.001099,-0.039062,0.007812,0.011719
24983854000,0.999817,-0.015747,0.012695,0.001099,-0.003906,0.007812,0.011719
25002386000,0.999817,-0.015747,0.012634,0.001099,-0.003906,0.007812,0.011719
25023103000,0.999817,-0.015686,0.012634,0.001099,-0.003906,0.007812,0.046875
25042833000,0.999817,-0.015686,0.012634,0.001099,-0.003906,0.007812,0.011719
25072895000,0.999817,-0.015747,0.012634,0.001099,-0.003906,0.000000,-0.027344
25087987000,0.999817,-0.015686,0.012695,0.001038,-0.003906,0.000000,0.011719
25102783000,0.999817,-0.015686,0.012634,0.001038,-0.039062,0.000000,0.011719
25122444000,0.999817,-0.015747,0.012634,0.001038,-0.003906,0.000000,0.011719
25152470000,0.999817,-0.015747,0.012634,0.001038,-0.003906,-0.039062,0.011719
25162487000,0.999817,-0.015808,0.012634,0.001038,-0.003906,0.007812,0.011719
25181859000,0.999817,-0.015747,0.012634,0.001038,-0.003906,0.007812,0.011719
25202776000,0.999817,-0.015747,0.012634,0.001038,-0.003906,0.007812,0.011719
25221977000,0.999817,-0.015808,0.012573,0.001038,-0.003906,0.000000,0.011719
25242299000,0.999817,-0.015808,0.012634,0.001038,-0.003906,0.007812,0.011719
25262758000,0.999817,-0.015808,0.012634,0.001038,-0.003906,0.007812,0.011719
25285866000,0.999817,-0.015808,0.012634,0.001038,-0.003906,0.007812,0.011719
25301690000,0.999817,-0.015747,0.012634,0.001038,-0.003906,0.007812,-0.027344
25321712000,0.999817,-0.015747,0.012634,0.001038,-0.003906,0.007812,-0.027344
25352288000,0.999817,-0.015808,0.012634,0.001099,-0.003906,0.007812,0.011719
25361471000,0.999817,-0.015808,0.012634,0.001099,-0.039062,0.007812,-0.027344
25381610000,0.999817,-0.015747,0.012573,0.001099,-0.003906,0.007812,0.011719
25402206000,0.999817,-0.015747,0.012573,0.001038,-0.003906,0.000000,0.011719
25427436000,0.999817,-0.015808,0.012573,0.001038,-0.003906,0.000000,0.011719
25444552000,0.999817,-0.015808,0.012573,0.001038,-0.003906,0.007812,0.011719
25461407000,0.999817,-0.015808,0.012573,0.001038,-0.003906,0.007812,0.011719
25486936000,0.999817,-0.015808,0.012573,0.001038,-0.003906,-0.031250,0.011719
25502061000,0.999817,-0.015808,0.012573,0.001038,-0.003906,-0.031250,0.011719
25521019000,0.999817,-0.015808,0.012573,0.001038,-0.003906,0.007812,0.046875
25541039000,0.999817,-0.015808,0.012573,0.001038,-0.003906,0.007812,0.011719
25560903000,0.999817,-0.015808,0.012573,0.001038,-0.003906,-0.031250,-0.027344
25581042000,0.999817,-0.015808,0.012573,0.001038,-0.003906,0.007812,0.011719
25606973000,0.999817,-0.015808,0.012573,0.000977,-0.003906,0.007812,0.011719
25621058000,0.999817,-0.015808,0.012573,0.000977,-0.003906,0.007812,0.011719
25641278000,0.999817,-0.015808,0.012573,0.000977,-0.003906,0.007812,0.011719
25661378000,0.999817,-0.015808,0.012512,0.000977,-0.003906,0.007812,0.011719
25687208000,0.999817,-0.015808,0.012512,0.000977,-0.003906,0.007812,-0.027344
25700661000,0.999817,-0.015808,0.012512,0.000977,-0.003906,0.007812,0.011719
25720474000,0.999817,-0.015808,0.012512,0.000977,-0.039062,0.007812,0.011719
25741258000,0.999817,-0.015808,0.012512,0.000977,-0.003906,0.007812,0.011719
25760874000,0.999817,-0.015747,0.012512,0.000977,-0.003906,0.007812,0.011719
25780826000,0.999817,-0.015808,0.012512,0.000977,-0.039062,0.007812,0.011719
25800556000,0.999817,-0.015747,0.012512,0.000916,-0.003906,0.007812,0.011719
25822207000,0.999817,-0.015808,0.012512,0.000916,-0.003906,0.007812,0.011719
25840577000,0.999817,-0.015808,0.012512,0.000916,-0.003906,-0.031250,0.011719
25860282000,0.999817,-0.015747,0.012512,0.000916,-0.003906,0.007812,0.011719
25890403000,0.999817,-0.015808,0.012512,0.000916,-0.003906,-0.031250,-0.027344
25900567000,0.999817,-0.015808,0.012512,0.000916,-0.003906,0.007812,0.011719
25919985000,0.999817,-0.015808,0.012512,0.000916,-0.039062,0.007812,0.011719
25939941000,0.999817,-0.015808,0.012512,0.000916,-0.003906,0.007812,0.011719
25966102000,0.999817,-0.015869,0.012512,0.000916,-0.003906,0.007812,-0.027344
25979681000,0.999817,-0.015808,0.012512,0.000916,-0.003906,0.007812,0.011719
26006630000,0.999817,-0.015869,0.012512,0.000916,-0.003906,-0.031250,-0.027344
26020197000,0.999817,-0.015869,0.012512,0.000916,-0.003906,0.007812,0.011719
26040350000,0.999817,-0.015869,0.012512,0.000916,-0.003906,0.007812,0.019531
26066565000,0.999817,-0.015869,0.012512,0.000916,-0.003906,0.007812,0.019531
26079917000,0.999817,-0.015869,0.012512,0.000854,-0.003906,0.007812,0.019531
26100280000,0.999817,-0.015869,0.012512,0.000854,0.035156,0.007812,0.019531
26123060000,0.999817,-0.015869,0.012512,0.000854,-0.003906,0.007812,0.019531
26139813000,0.999817,-0.015869,0.012512,0.000854,-0.003906,0.007812,0.019531
26161605000,0.999817,-0.015869,0.012512,0.000854,-0.003906,0.007812,0.019531
26179143000,0.999817,-0.015869,0.012512,0.000854,-0.003906,0.000000,0.011719
26209150000,0.999817,-0.015869,0.012512,0.000854,-0.003906,0.000000,0.011719
26219551000,0.999817,-0.015869,0.012512,0.000854,-0.003906,0.000000,0.011719
26239126000,0.999817,-0.015869,0.012573,0.000854,-0.003906,0.000000,0.011719
26261426000,0.999817,-0.015869,0.012573,0.000916,-0.003906,0.000000,0.011719
26289867000,0.999817,-0.015869,0.012573,0.000916,-0.039062,0.000000,-0.027344
26304649000,0.999817,-0.015869,0.012573,0.000854,-0.003906,0.000000,0.011719
26318991000,0.999817,-0.015869,0.012573,0.000854,-0.003906,0.000000,0.011719
26338812000,0.999817,-0.015869,0.012634,0.000854,-0.003906,0.000000,0.046875
26359553000,0.999817,-0.015869,0.012573,0.000854,-0.039062,0.000000,0.011719
26385392000,0.999817,-0.015869,0.012573,0.000854,-0.003906,0.000000,0.011719
26398824000,0.999817,-0.015869,0.012573,0.000854,-0.003906,0.000000,0.011719
26418692000,0.999817,-0.015808,0.012573,0.000854,-0.003906,0.000000,0.011719
26439730000,0.999817,-0.015808,0.012573,0.000854,-0.003906,0.000000,0.011719
26466296000,0.999817,-0.015808,0.012573,0.000916,-0.003906,0.000000,-0.027344
26478627000,0.999817,-0.015808,0.012573,0.000854,-0.003906,0.000000,0.011719
26498456000,0.999817,-0.015808,0.012573,0.000854,-0.003906,0.000000,-0.027344
26518974000,0.999817,-0.015808,0.012573,0.000854,-0.003906,0.000000,0.011719
26548835000,0.999817,-0.015747,0.012573,0.000854,-0.003906,0.000000,-0.027344
26558396000,0.999817,-0.015747,0.012573,0.000854,-0.039062,0.000000,0.011719
26578391000,0.999817,-0.015747,0.012573,0.000854,-0.003906,-0.039062,0.011719
26603523000,0.999817,-0.015808,0.012573,0.000854,-0.003906,0.000000,0.011719
26618183000,0.999817,-0.015808,0.012573,0.000854,-0.003906,0.000000,0.046875
26648663000,0.999817,-0.015869,0.012573,0.000854,-0.003906,0.000000,0.011719
26658313000,0.999817,-0.015808,0.012573,0.000854,-0.003906,0.000000,0.011719
26677981000,0.999817,-0.015869,0.012573,0.000854,-0.003906,0.000000,0.011719
26698632000,0.999817,-0.015869,0.012573,0.000854,-0.003906,0.000000,0.011719
26727881000,0.999817,-0.015930,0.012573,0.000854,-0.003906,0.000000,0.011719
26744936000,0.999817,-0.015930,0.012573,0.000854,-0.003906,0.000000,0.011719
26757895000,0.999817,-0.015930,0.012573,0.000854,-0.003906,-0.039062,0.011719
26778654000,0.999817,-0.015930,0.012573,0.000854,-0.039062,0.000000,0.011719
26797914000,0.999817,-0.015930,0.012573,0.000854,-0.003906,0.000000,0.011719
26818198000,0.999817,-0.015930,0.012573,0.000854,-0.003906,0.000000,0.011719
26847978000,0.999817,-0.015930,0.012573,0.000854,-0.003906,0.000000,0.011719
26857876000,0.999817,-0.015930,0.012573,0.000916,-0.003906,0.000000,0.011719
26879131000,0.999817,-0.015930,0.012573,0.000916,-0.003906,0.000000,0.011719
26897924000,0.999817,-0.015930,0.012573,0.000916,-0.003906,-0.039062,0.011719
26928420000,0.999817,-0.015930,0.012573,0.000854,0.035156,0.000000,0.011719
26937725000,0.999817,-0.015930,0.012573,0.000854,-0.003906,-0.039062,0.011719
26957604000,0.999817,-0.015930,0.012634,0.000854,-0.003906,0.000000,0.011719
26987612000,0.999817,-0.015930,0.012634,0.000854,-0.039062,-0.031250,0.011719
26997529000,0.999817,-0.015930,0.012634,0.000854,-0.003906,0.007812,0.011719
27017722000,0.999817,-0.015930,0.012634,0.000854,-0.003906,0.007812,-0.027344
27043582000,0.999817,-0.015930,0.012634,0.000793,-0.003906,0.007812,0.011719
27057343000,0.999817,-0.015930,0.012634,0.000793,-0.039062,0.007812,-0.027344
27087152000,0.999817,-0.015930,0.012634,0.000793,-0.003906,0.007812,0.011719
27097291000,0.999817,-0.015930,0.012634,0.000793,-0.003906,0.007812,0.011719
27117715000,0.999817,-0.015930,0.012634,0.000793,0.003906,-0.031250,0.011719
27137476000,0.999817,-0.015930,0.012695,0.000793,0.003906,0.007812,0.011719
27167198000,0.999817,-0.015930,0.012695,0.000793,0.003906,0.007812,0.011719
27184654000,0.999817,-0.015930,0.012695,0.000793,0.003906,0.007812,0.011719
27197395000,0.999817,-0.015869,0.012695,0.000793,0.003906,0.007812,-0.027344
27217534000,0.999817,-0.015869,0.012695,0.000793,0.003906,0.007812,0.011719
27246312000,0.999817,-0.015869,0.012695,0.000793,0.042969,0.007812,0.011719
27256463000,0.999817,-0.015869,0.012695,0.000793,-0.003906,0.007812,0.011719
27277010000,0.999817,-0.015869,0.012695,0.000793,-0.003906,0.007812,0.046875
27297155000,0.999817,-0.015869,0.012695,0.000793,-0.003906,0.007812,0.011719
27326477000,0.999817,-0.015869,0.012695,0.000793,0.035156,-0.031250,-0.027344
27336477000,0.999817,-0.015869,0.012695,0.000793,-0.003906,0.007812,0.011719
27356764000,0.999817,-0.015869,0.012695,0.000793,-0.003906,0.007812,0.011719
27381917000,0.999817,-0.015869,0.012695,0.000793,-0.003906,0.007812,0.003906
27396948000,0.999817,-0.015869,0.012695,0.000793,-0.039062,0.007812,0.003906
27426078000,0.999817,-0.015869,0.012695,0.000793,-0.039062,0.007812,0.003906
27435987000,0.999817,-0.015869,0.012695,0.000793,-0.003906,0.007812,0.003906
27457042000,0.999817,-0.015869,0.012695,0.000793,-0.003906,0.007812,0.003906
27485994000,0.999817,-0.015869,0.012695,0.000793,-0.003906,0.000000,0.039062
27501744000,0.999817,-0.015869,0.012695,0.000793,-0.003906,0.000000,0.003906
27529870000,0.999817,-0.015869,0.012695,0.000793,-0.003906,0.000000,0.003906
27535712000,0.999817,-0.015869,0.012695,0.000793,-0.003906,0.000000,0.003906
27556384000,0.999817,-0.015869,0.012695,0.000793,-0.003906,0.000000,0.003906
27585409000,0.999817,-0.015869,0.012695,0.000793,-0.003906,0.000000,0.003906
27595567000,0.999817,-0.015869,0.012695,0.000793,-0.003906,0.000000,0.003906
27616676000,0.999817,-0.015869,0.012695,0.000793,-0.003906,0.000000,0.003906
27645631000,0.999817,-0.016052,0.012756,0.000854,3.175781,0.113281,0.039062
27655324000,0.999817,-0.015930,0.012756,0.000854,2.714844,0.035156,0.156250
27677719000,0.999817,-0.016052,0.012939,0.000854,1.136719,-0.078125,-0.074219
27705011000,0.999817,-0.015747,0.013000,0.000854,-0.785156,-0.039062,0.117188
27725843000,0.999817,-0.015442,0.013000,0.000854,-1.253906,-0.164062,0.156250
27735283000,0.999817,-0.015564,0.013062,0.000854,-0.761719,0.058594,-0.304688
27757294000,0.999817,-0.015564,0.013062,0.000793,-1.031250,-0.093750,0.421875
27776672000,0.999817,-0.015442,0.013062,0.000793,-0.347656,-0.007812,-0.191406
27798602000,0.999817,-0.015564,0.013062,0.000793,0.371094,-0.046875,0.308594
27816325000,0.999817,-0.015869,0.013123,0.000793,1.050781,-0.085938,0.269531
27836662000,0.999756,-0.015869,0.013245,0.000854,0.238281,0.000000,0.039062
27865207000,0.999756,-0.015991,0.013306,0.000854,0.800781,-0.039062,0.117188
27875313000,0.999756,-0.015991,0.013184,0.000854,1.066406,0.000000,0.039062
27905373000,0.999756,-0.015930,0.013306,0.000854,0.523438,0.000000,0.070312
27927346000,0.999756,-0.015869,0.013428,0.000854,0.707031,-0.039062,-0.082031
27935358000,0.999756,-0.015808,0.013428,0.000854,0.589844,0.074219,-0.234375
27964681000,0.999756,-0.015686,0.013489,0.000793,-0.640625,0.066406,0.187500
27985081000,0.999756,-0.015686,0.013611,0.000854,-1.070312,0.066406,-0.226562
28010457000,0.999756,-0.015808,0.013672,0.000854,-1.492188,-0.007812,-0.074219
28024752000,0.999756,-0.015930,0.013733,0.000854,-1.613281,-0.007812,0.003906
28044178000,0.999756,-0.015869,0.013672,0.000854,-1.156250,0.042969,-0.074219
28055320000,0.999756,-0.015808,0.013672,0.000854,-1.164062,0.042969,-0.074219
28084189000,0.999756,-0.015869,0.013733,0.000854,-2.007812,0.007812,-0.035156
28105978000,0.999756,-0.015930,0.013733,0.000854,-0.964844,0.007812,0.003906
28130302000,0.999756,-0.015869,0.013733,0.000854,0.148438,0.007812,0.003906
28144009000,0.999756,-0.015869,0.013733,0.000854,0.484375,0.007812,0.003906
28165035000,0.999756,-0.015808,0.013794,0.000854,-0.664062,0.007812,-0.035156
28183819000,0.999756,-0.015808,0.013794,0.000854,-0.855469,0.000000,-0.035156
28212467000,0.999756,-0.015747,0.013794,0.000854,-0.242188,0.000000,0.003906
28223622000,0.999756,-0.015747,0.013794,0.000854,-0.242188,0.000000,0.003906
28243696000,0.999756,-0.015747,0.013794,0.000854,-0.242188,0.000000,0.003906
28269727000,0.999756,-0.015747,0.013794,0.000854,-0.242188,0.035156,0.003906
28283831000,0.999756,-0.015747,0.013794,0.000916,-0.207031,0.000000,0.003906
28303769000,0.999756,-0.015747,0.013794,0.000854,-0.207031,0.000000,0.003906
28328411000,0.999756,-0.015747,0.013794,0.000854,-0.242188,0.000000,0.003906
28343535000,0.999756,-0.015747,0.013794,0.000854,-0.242188,0.000000,0.003906
28363543000,0.999756,-0.015747,0.013794,0.000854,-0.242188,0.000000,-0.035156
28384598000,0.999756,-0.015686,0.013794,0.000854,-0.207031,0.000000,0.003906
28411989000,0.999756,-0.015686,0.013794,0.000854,0.753906,0.000000,-0.035156
28423057000,0.999756,-0.015686,0.013794,0.000854,-0.742188,0.000000,0.003906
28443046000,0.999756,-0.015625,0.013733,0.000854,-1.125000,0.000000,-0.035156
28464200000,0.999756,-0.015625,0.013733,0.000854,-0.207031,0.000000,0.003906
28483063000,0.999756,-0.015625,0.013733,0.000854,-0.207031,0.000000,-0.035156
28503550000,0.999756,-0.015625,0.013733,0.000854,-0.207031,0.000000,-0.035156
28533291000,0.999756,-0.015625,0.013733,0.000916,-0.234375,0.000000,0.003906
28547973000,0.999756,-0.015625,0.013733,0.000916,-0.234375,0.000000,0.003906
28562855000,0.999756,-0.015625,0.013733,0.000916,-0.234375,0.000000,-0.035156
28583134000,0.999756,-0.015625,0.013733,0.000916,-0.234375,0.000000,0.039062
28603664000,0.999756,-0.015564,0.013733,0.000916,-0.199219,0.000000,0.003906
28628810000,0.999756,-0.015564,0.013733,0.000916,-0.234375,0.000000,0.003906
28642685000,0.999756,-0.015564,0.013733,0.000916,-0.234375,0.000000,-0.035156
28662642000,0.999756,-0.015564,0.013733,0.000916,-0.234375,0.000000,-0.035156
28682756000,0.999756,-0.015564,0.013733,0.000916,-0.226562,0.000000,0.003906
28707393000,0.999756,-0.015564,0.013733,0.000916,-0.226562,0.000000,-0.035156
28722712000,0.999756,-0.015503,0.013733,0.000916,-0.226562,0.000000,0.003906
28742276000,0.999756,-0.015503,0.013794,0.000916,-0.191406,0.000000,-0.035156
28762972000,0.999756,-0.015503,0.013794,0.000916,-0.226562,0.000000,-0.035156
28786560000,0.999756,-0.015503,0.013794,0.000916,-0.015625,0.000000,0.003906
28808810000,0.999756,-0.015564,0.013794,0.000854,-0.015625,0.000000,0.003906
28822741000,0.999756,-0.015564,0.013794,0.000854,0.019531,0.000000,0.003906
28846516000,0.999756,-0.015564,0.013794,0.000854,0.019531,0.000000,-0.035156
28862671000,0.999756,-0.015564,0.013794,0.000916,-0.015625,0.000000,-0.035156
28884980000,0.999756,-0.015564,0.013794,0.000854,-0.015625,0.000000,0.003906
28902220000,0.999756,-0.015564,0.013794,0.000854,0.019531,0.000000,0.003906
28925104000,0.999756,-0.015564,0.013794,0.000854,0.019531,0.000000,0.003906
28942106000,0.999756,-0.015625,0.013733,0.000854,-0.015625,0.000000,-0.035156
28963055000,0.999756,-0.015625,0.013733,0.000854,-0.015625,0.000000,0.011719
28988441000,0.999756,-0.015625,0.013733,0.000916,-0.015625,0.000000,-0.027344
29002059000,0.999756,-0.015564,0.013733,0.000854,-0.015625,0.000000,0.011719
29022087000,0.999756,-0.015564,0.013733,0.000854,0.019531,0.000000,0.011719
29051732000,0.999756,-0.015564,0.013733,0.000916,-0.015625,0.000000,0.011719
29061675000,0.999756,-0.015564,0.013733,0.000916,-0.015625,0.000000,0.011719
29081626000,0.999756,-0.015564,0.013733,0.000916,-0.015625,0.000000,0.011719
29103870000,0.999756,-0.015564,0.013733,0.000916,-0.015625,0.000000,0.011719
29122556000,0.999756,-0.015625,0.013733,0.000916,0.019531,0.000000,0.011719
29141995000,0.999756,-0.015625,0.013733,0.000916,-0.015625,0.000000,0.011719
29162107000,0.999756,-0.015564,0.013733,0.000916,-0.015625,0.000000,0.011719
29188553000,0.999756,-0.015625,0.013733,0.000916,-0.015625,0.000000,0.011719
29201255000,0.999756,-0.015564,0.013733,0.000916,-0.015625,0.000000,0.011719
29228521000,0.999756,-0.015625,0.013672,0.000916,0.019531,0.000000,0.011719
29241734000,0.999756,-0.015625,0.013672,0.000916,-0.007812,0.035156,0.011719
29261979000,0.999756,-0.015625,0.013672,0.000854,0.027344,0.000000,0.011719
29287296000,0.999756,-0.015564,0.013672,0.000916,-0.007812,0.000000,0.011719
29300888000,0.999756,-0.015625,0.013672,0.000854,-0.007812,0.000000,-0.027344
29322459000,0.999756,-0.015564,0.013672,0.000916,0.027344,0.000000,0.011719
29346797000,0.999756,-0.015564,0.013672,0.000916,0.027344,0.000000,0.011719
29361308000,0.999756,-0.015564,0.013672,0.000916,0.027344,0.000000,-0.027344
29380710000,0.999756,-0.015503,0.013672,0.000916,0.019531,0.000000,-0.027344
29402429000,0.999756,-0.015503,0.013672,0.000916,-0.015625,0.000000,0.011719
29420642000,0.999756,-0.015564,0.013672,0.000916,-0.015625,0.000000,0.011719
29441390000,0.999756,-0.015503,0.013672,0.000916,-0.015625,0.035156,-0.027344
29460776000,0.999756,-0.015503,0.013672,0.000916,-0.015625,0.000000,0.011719
29480880000,0.999817,-0.015442,0.013672,0.000916,0.019531,0.000000,-0.027344
29500438000,0.999817,-0.015442,0.013672,0.000916,-0.015625,0.035156,0.011719
29521930000,0.999817,-0.015503,0.013672,0.000916,0.027344,0.000000,0.046875
29540263000,0.999817,-0.015503,0.013672,0.000916,0.019531,-0.007812,0.011719
29561116000,0.999756,-0.015503,0.013672,0.000916,0.019531,-0.007812,0.011719
29590751000,0.999756,-0.015503,0.013672,0.000916,0.019531,-0.007812,0.011719
29600594000,0.999756,-0.015503,0.013672,0.000916,-0.015625,-0.007812,0.011719
29619985000,0.999756,-0.015564,0.013672,0.000916,-0.015625,-0.007812,0.011719
29650032000,0.999756,-0.015564,0.013672,0.000916,0.019531,-0.007812,0.011719
29660258000,0.999756,-0.015503,0.013672,0.000916,0.019531,0.027344,0.011719
29679892000,0.999756,-0.015503,0.013672,0.000916,0.019531,-0.007812,0.011719
29700219000,0.999756,-0.015503,0.013672,0.000854,0.011719,-0.007812,0.003906
29724054000,0.999756,-0.015503,0.013672,0.000854,0.011719,-0.007812,-0.035156
29739951000,0.999756,-0.015503,0.013672,0.000854,-0.023438,0.000000,-0.035156
29759859000,0.999756,-0.015503,0.013672,0.000854,-0.023438,0.000000,-0.035156
29780439000,0.999756,-0.015503,0.013672,0.000854,-0.015625,0.000000,0.011719
29805091000,0.999756,-0.015503,0.013672,0.000854,-0.015625,0.000000,0.011719
29820127000,0.999756,-0.015503,0.013672,0.000854,0.019531,0.000000,-0.027344
29839439000,0.999756,-0.015503,0.013672,0.000854,-0.015625,0.000000,0.011719
29861306000,0.999756,-0.015503,0.013672,0.000854,0.019531,0.000000,0.011719
29879609000,0.999756,-0.015503,0.013672,0.000854,0.019531,0.000000,-0.027344
29900179000,0.999756,-0.015503,0.013672,0.000854,0.019531,0.000000,0.011719
29925781000,0.999756,-0.015503,0.013672,0.000854,0.019531,0.000000,0.011719
29939610000,0.999756,-0.015503,0.013672,0.000854,-0.015625,0.000000,-0.027344
29959195000,0.999756,-0.015503,0.013672,0.000854,0.019531,0.000000,0.011719
29988799000,0.999756,-0.015503,0.013672,0.000854,-0.015625,0.000000,0.011719
30004619000,0.999756,-0.015503,0.013672,0.000854,-0.015625,0.035156,-0.027344
30018839000,0.999756,-0.015503,0.013672,0.000854,0.019531,0.000000,0.011719
30039322000,0.999756,-0.015503,0.013672,0.000854,-0.015625,0.000000,-0.027344
30069066000,0.999756,-0.015503,0.013672,0.000854,0.019531,0.000000,0.011719
30079418000,0.999756,-0.015503,0.013672,0.000854,0.019531,0.000000,0.011719
30098833000,0.999756,-0.015503,0.013672,0.000854,-0.015625,0.000000,0.011719
30124200000,0.999756,-0.015503,0.013672,0.000854,-0.015625,0.000000,0.011719
30138968000,0.999756,-0.015503,0.013672,0.000854,0.027344,-0.039062,0.011719
30159531000,0.999756,-0.015503,0.013672,0.000854,-0.007812,0.035156,0.011719
30178593000,0.999756,-0.015503,0.013672,0.000854,0.027344,0.000000,-0.027344
30209304000,0.999756,-0.015503,0.013672,0.000854,-0.007812,0.000000,0.011719
30218414000,0.999756,-0.015503,0.013672,0.000854,-0.007812,0.000000,-0.027344
30238606000,0.999756,-0.015503,0.013672,0.000854,0.027344,0.000000,0.011719
30259523000,0.999756,-0.015503,0.013672,0.000854,0.027344,0.000000,0.011719
30288091000,0.999756,-0.015503,0.013672,0.000854,0.027344,0.000000,0.011719
30298032000,0.999756,-0.015503,0.013672,0.000854,-0.007812,0.035156,-0.027344
30318200000,0.999756,-0.015503,0.013672,0.000854,-0.007812,0.000000,0.011719
30338202000,0.999756,-0.015503,0.013672,0.000854,-0.007812,0.000000,0.011719
30367942000,0.999756,-0.015503,0.013672,0.000854,-0.007812,0.000000,0.011719
30378099000,0.999756,-0.015503,0.013672,0.000854,-0.007812,0.000000,-0.027344
30398112000,0.999756,-0.015503,0.013672,0.000854,0.027344,0.000000,0.011719
30418875000,0.999756,-0.015503,0.013672,0.000854,-0.007812,0.000000,0.011719
30447645000,0.999756,-0.015503,0.013672,0.000854,-0.007812,0.000000,-0.027344
30467130000,0.999756,-0.015503,0.013672,0.000854,-0.007812,0.000000,-0.027344
30477892000,0.999756,-0.015503,0.013672,0.000854,-0.007812,0.000000,-0.027344
30498309000,0.999756,-0.015503,0.013672,0.000854,-0.007812,0.000000,0.011719
30523467000,0.999756,-0.015503,0.013672,0.000854,-0.007812,0.000000,0.011719
30538262000,0.999756,-0.015503,0.013672,0.000854,-0.007812,0.000000,0.011719
30557751000,0.999756,-0.015503,0.013672,0.000854,-0.007812,0.000000,0.011719
30577668000,0.999756,-0.015503,0.013672,0.000854,-0.007812,0.000000,0.011719
30597612000,0.999756,-0.015503,0.013672,0.000854,-0.007812,0.000000,0.011719
30617352000,0.999756,-0.015503,0.013672,0.000854,0.027344,0.000000,0.011719
30647671000,0.999756,-0.015503,0.013672,0.000854,0.027344,0.000000,0.011719
30657123000,0.999756,-0.015503,0.013672,0.000854,0.027344,0.000000,-0.027344
30677955000,0.999756,-0.015503,0.013672,0.000854,0.027344,0.000000,0.011719
30697406000,0.999756,-0.015503,0.013672,0.000854,-0.007812,0.000000,0.011719
30718418000,0.999756,-0.015503,0.013672,0.000854,0.027344,0.000000,-0.027344
30743490000,0.999756,-0.015503,0.013672,0.000854,0.027344,0.035156,0.011719
30757571000,0.999756,-0.015503,0.013672,0.000854,-0.007812,0.000000,0.011719
30777757000,0.999756,-0.015503,0.013672,0.000854,0.027344,0.000000,0.011719
30797799000,0.999756,-0.015503,0.013672,0.000854,-0.007812,0.000000,-0.027344
30826608000,0.999756,-0.015503,0.013672,0.000854,-0.007812,0.000000,0.011719
30837316000,0.999756,-0.015503,0.013672,0.000854,-0.007812,0.000000,0.011719
30857488000,0.999756,-0.015503,0.013672,0.000854,0.027344,0.000000,0.011719
30878802000,0.999756,-0.015503,0.013672,0.000854,0.027344,0.000000,0.011719
30906789000,0.999756,-0.015503,0.013672,0.000854,-0.007812,0.000000,-0.027344
30916711000,0.999756,-0.015503,0.013672,0.000916,0.027344,0.000000,0.011719
30937337000,0.999756,-0.015503,0.013672,0.000916,0.027344,-0.007812,0.011719
30956832000,0.999756,-0.015503,0.013672,0.000854,0.027344,-0.007812,-0.027344
30986680000,0.999756,-0.015503,0.013672,0.000854,-0.007812,-0.007812,0.011719
30996656000,0.999756,-0.015503,0.013672,0.000854,-0.007812,-0.007812,0.011719
31017073000,0.999756,-0.015503,0.013672,0.000854,0.027344,-0.007812,0.011719
31037061000,0.999756,-0.015503,0.013672,0.000916,0.027344,0.000000,0.011719
31066665000,0.999756,-0.015503,0.013672,0.000854,-0.007812,0.000000,0.011719
31086041000,0.999756,-0.015503,0.013672,0.000854,0.027344,0.000000,0.011719
31096481000,0.999756,-0.015503,0.013672,0.000854,0.019531,0.000000,0.011719
31117116000,0.999756,-0.015503,0.013672,0.000854,-0.015625,0.000000,0.011719
31145810000,0.999756,-0.015503,0.013672,0.000854,0.019531,0.000000,0.011719
31155915000,0.999756,-0.015503,0.013672,0.000854,0.019531,0.000000,-0.027344
31189427000,0.999756,-0.015503,0.013672,0.000793,-0.015625,0.035156,-0.027344
31195439000,0.999756,-0.015503,0.013672,0.000793,-0.015625,0.000000,-0.027344
31217501000,0.999756,-0.015503,0.013672,0.000793,-0.015625,0.000000,0.011719
31246285000,0.999817,-0.015442,0.013672,0.000793,-0.015625,0.000000,0.011719
31255799000,0.999817,-0.015503,0.013672,0.000854,0.019531,0.000000,0.011719
31279069000,0.999817,-0.015503,0.013611,0.000854,-0.015625,0.000000,0.011719
31302755000,0.999817,-0.015503,0.013611,0.000854,0.019531,0.000000,0.011719
31316635000,0.999756,-0.015503,0.013611,0.000854,0.011719,0.035156,0.011719
31336579000,0.999756,-0.015564,0.013611,0.000854,-0.023438,0.000000,0.011719
31365730000,0.999817,-0.015503,0.013611,0.000854,-0.015625,0.000000,0.011719
31375800000,0.999817,-0.015564,0.013611,0.000854,0.019531,0.000000,0.011719
31397031000,0.999756,-0.015564,0.013611,0.000854,0.019531,0.000000,0.011719
31417164000,0.999756,-0.015564,0.013611,0.000793,-0.015625,0.000000,0.011719
31445024000,0.999756,-0.015564,0.013611,0.000793,-0.015625,0.000000,-0.027344
31455309000,0.999756,-0.015564,0.013611,0.000793,-0.015625,0.000000,-0.027344
31476612000,0.999756,-0.015564,0.013611,0.000793,-0.015625,0.000000,0.011719
31496684000,0.999756,-0.015564,0.013611,0.000793,-0.015625,0.000000,0.011719
31524933000,0.999756,-0.015625,0.013611,0.000793,-0.015625,0.000000,0.011719
31541913000,0.999756,-0.015625,0.013611,0.000793,-0.007812,0.000000,0.011719
31556043000,0.999756,-0.015625,0.013611,0.000793,-0.007812,0.000000,0.011719
31576649000,0.999756,-0.015564,0.013672,0.000793,-0.007812,0.000000,0.011719
31604660000,0.999756,-0.015503,0.013611,0.000732,-0.007812,0.000000,0.011719
31625132000,0.999756,-0.015503,0.013672,0.000732,-0.007812,0.035156,-0.027344
31635271000,0.999756,-0.015503,0.013672,0.000732,-0.007812,0.000000,0.011719
31656200000,0.999817,-0.015503,0.013611,0.000732,0.027344,0.000000,0.011719
31684837000,0.999756,-0.015564,0.013611,0.000732,-0.015625,0.000000,0.011719
31704465000,0.999817,-0.015564,0.013611,0.000732,0.019531,0.000000,0.011719
31715207000,0.999817,-0.015503,0.013550,0.000793,0.019531,0.000000,0.011719
31736689000,0.999817,-0.015503,0.013550,0.000732,-0.015625,0.000000,0.011719
31764538000,0.999817,-0.015503,0.013550,0.000732,-0.015625,0.000000,-0.027344
31784573000,0.999817,-0.015442,0.013550,0.000732,-0.015625,0.000000,0.011719
31806906000,0.999817,-0.015442,0.013550,0.000732,0.019531,-0.007812,-0.027344
31815318000,0.999817,-0.015442,0.013550,0.000732,-0.015625,-0.007812,0.011719
31844794000,0.999817,-0.015381,0.013489,0.000732,-0.015625,-0.007812,0.019531
31864655000,0.999817,-0.015381,0.013489,0.000732,-0.015625,0.027344,0.019531
31875308000,0.999817,-0.015381,0.013489,0.000732,-0.015625,-0.046875,0.019531
31906521000,0.999817,-0.015381,0.013489,0.000732,0.019531,-0.007812,0.019531
31924177000,0.999817,-0.015442,0.013489,0.000732,0.019531,-0.007812,0.054688
31943758000,0.999817,-0.015442,0.013489,0.000732,0.019531,-0.007812,0.011719
31955191000,0.999817,-0.015442,0.013489,0.000732,0.019531,0.027344,0.011719
31988919000,0.999817,-0.015442,0.013489,0.000732,-0.015625,-0.007812,-0.027344
31998196000,0.999817,-0.015503,0.013489,0.000732,-0.015625,-0.007812,-0.027344
32023543000,0.999817,-0.015503,0.013489,0.000732,0.019531,0.000000,0.011719
32041831000,0.999817,-0.015503,0.013489,0.000732,-0.023438,0.000000,0.011719
32068414000,0.999817,-0.015503,0.013489,0.000671,0.011719,0.000000,0.011719
32083416000,0.999817,-0.015503,0.013489,0.000671,0.011719,0.000000,0.011719
32106185000,0.999817,-0.015503,0.013550,0.000732,-0.023438,0.000000,0.011719
32124011000,0.999817,-0.015564,0.013550,0.000732,-0.023438,0.000000,0.011719
32143809000,0.999817,-0.015564,0.013550,0.000671,-0.023438,0.000000,-0.027344
32163110000,0.999817,-0.015564,0.013550,0.000671,-0.023438,0.000000,0.011719
32185157000,0.999817,-0.015564,0.013550,0.000671,-0.023438,0.000000,0.011719
32209165000,0.999817,-0.015564,0.013550,0.000671,0.019531,0.000000,0.011719
32223357000,0.999817,-0.015564,0.013550,0.000671,-0.015625,0.000000,0.046875
32243286000,0.999817,-0.015503,0.013550,0.000732,0.019531,0.000000,0.011719
32262940000,0.999817,-0.015503,0.013550,0.000732,0.019531,0.000000,0.011719
32283180000,0.999817,-0.015503,0.013550,0.000732,-0.015625,0.000000,-0.027344
32305655000,0.999817,-0.015503,0.013611,0.000732,0.019531,0.000000,0.011719
32328770000,0.999817,-0.015503,0.013611,0.000671,-0.015625,0.000000,0.011719
32343155000,0.999817,-0.015503,0.013611,0.000671,0.250000,0.000000,-0.027344
32363047000,0.999756,-0.015686,0.013855,0.000732,3.781250,0.074219,0.125000
32382506000,0.999817,-0.015381,0.013733,0.000671,3.859375,0.035156,0.011719
32408941000,0.999756,-0.015503,0.014221,0.000732,1.316406,-0.046875,0.164062
32422675000,0.999756,-0.015259,0.014221,0.000671,0.769531,-0.007812,-0.066406
32443177000,0.999756,-0.015259,0.014404,0.000671,0.113281,0.066406,-0.027344
32462462000,0.999756,-0.015381,0.014465,0.000671,-0.855469,0.027344,-0.335938
32485590000,0.999756,-0.015259,0.014465,0.000671,-1.472656,-0.007812,0.011719
32502752000,0.999756,-0.015442,0.014465,0.000671,-1.128906,0.027344,-0.144531
32522199000,0.999756,-0.015198,0.014465,0.000671,-1.445312,-0.046875,-0.335938
32544919000,0.999756,-0.015198,0.014526,0.000671,-2.066406,0.097656,0.011719
32562427000,0.999756,-0.015137,0.014526,0.000671,-1.796875,0.058594,-0.144531
32581821000,0.999756,-0.015381,0.014587,0.000671,-0.074219,-0.007812,0.046875
32601904000,0.999756,-0.015381,0.014587,0.000671,0.691406,-0.007812,-0.027344
32632262000,0.999756,-0.015198,0.014648,0.000671,-0.695312,-0.316406,0.046875
32642163000,0.999756,-0.015259,0.014587,0.000671,-1.000000,-0.046875,0.085938
32661592000,0.999756,-0.015259,0.014648,0.000671,-1.503906,0.027344,-0.066406
32681704000,0.999756,-0.015137,0.014587,0.000671,-0.929688,-0.015625,0.011719
32703650000,0.999756,-0.015198,0.014587,0.000671,-0.664062,-0.015625,-0.027344
32721453000,0.999756,-0.015198,0.014587,0.000610,-0.738281,-0.015625,0.011719
32748122000,0.999756,-0.015137,0.014587,0.000671,-0.125000,-0.015625,-0.027344
32761652000,0.999756,-0.015137,0.014587,0.000610,-0.125000,0.019531,0.011719
32781525000,0.999756,-0.015137,0.014648,0.000610,-0.132812,0.019531,-0.027344
32801681000,0.999756,-0.015137,0.014648,0.000671,-0.132812,-0.007812,0.011719
32831403000,0.999756,-0.015076,0.014648,0.000610,-0.097656,-0.015625,0.011719
32841318000,0.999756,-0.015076,0.014648,0.000610,-0.132812,-0.015625,0.046875
32861208000,0.999756,-0.015076,0.014648,0.000610,-0.132812,-0.007812,0.011719
32880833000,0.999756,-0.015076,0.014648,0.000610,0.707031,-0.015625,0.011719
32911393000,0.999756,-0.015015,0.014648,0.000671,0.746094,-0.015625,0.011719
32926734000,0.999756,-0.015015,0.014709,0.000671,0.593750,-0.015625,0.011719
32940822000,0.999756,-0.015015,0.014709,0.000671,-0.132812,-0.015625,-0.027344
32960729000,0.999756,-0.014893,0.014709,0.000671,-0.792969,0.019531,0.011719
32991006000,0.999756,-0.014893,0.014709,0.000671,-0.871094,-0.015625,-0.027344
33006496000,0.999756,-0.014893,0.014709,0.000671,-1.023438,0.019531,0.011719
33023408000,0.999756,-0.014893,0.014648,0.000671,-0.753906,-0.015625,-0.027344
33040643000,0.999756,-0.014893,0.014648,0.000671,-0.140625,-0.015625,0.011719
33061027000,0.999756,-0.014893,0.014587,0.000671,0.125000,-0.015625,0.011719
33085461000,0.999756,-0.014954,0.014648,0.000671,0.699219,0.019531,0.046875
33100394000,0.999756,-0.014954,0.014709,0.000610,-0.296875,-0.015625,0.011719
33128835000,0.999756,-0.014893,0.014709,0.000610,-0.832031,0.019531,0.011719
33140172000,0.999756,-0.014893,0.014648,0.000610,0.890625,-0.015625,0.011719
33160707000,0.999756,-0.014954,0.014648,0.000610,1.773438,-0.015625,0.011719
33185108000,0.999756,-0.014832,0.014709,0.000610,0.546875,0.019531,-0.066406
33200174000,0.999756,-0.014832,0.014771,0.000610,-0.218750,0.019531,0.085938
33219892000,0.999756,-0.015015,0.014832,0.000610,-0.910156,-0.015625,0.046875
33250118000,0.999756,-0.014893,0.014771,0.000610,-1.484375,0.019531,0.125000
33260425000,0.999756,-0.014832,0.014771,0.000610,-1.062500,0.019531,-0.027344
33280651000,0.999756,-0.014832,0.014771,0.000610,-0.332031,0.019531,0.011719
33300324000,0.999756,-0.014832,0.014771,0.000610,-0.027344,0.019531,0.011719
33324431000,0.999756,-0.014832,0.014771,0.000610,-0.562500,-0.015625,-0.027344
33339739000,0.999756,-0.014832,0.014771,0.000610,-0.140625,0.019531,0.046875
33359939000,0.999756,-0.014832,0.014771,0.000610,-0.132812,0.019531,-0.027344
33390338000,0.999756,-0.014832,0.014771,0.000610,-0.132812,-0.015625,0.011719
33406141000,0.999756,-0.014832,0.014709,0.000610,-0.132812,-0.015625,-0.027344
33419644000,0.999756,-0.014832,0.014709,0.000671,-0.132812,-0.015625,0.011719
33439946000,0.999756,-0.014832,0.014709,0.000671,-0.132812,-0.015625,0.011719
33469633000,0.999756,-0.014832,0.014709,0.000610,-0.132812,-0.015625,0.011719
33479489000,0.999756,-0.014832,0.014709,0.000610,-0.132812,-0.015625,0.011719
33500025000,0.999756,-0.014832,0.014709,0.000610,-0.132812,-0.015625,-0.027344
33519339000,0.999756,-0.014832,0.014709,0.000610,-0.125000,-0.015625,0.011719
33539357000,0.999756,-0.014832,0.014709,0.000610,-0.125000,-0.015625,0.011719
33559855000,0.999756,-0.014832,0.014709,0.000610,-0.125000,0.019531,0.011719
33580823000,0.999756,-0.014832,0.014709,0.000671,-0.125000,-0.015625,0.011719
