timestamp_ns,qw,qx,qy,qz,ax,ay,az,t_sec,dist_e05a1,dist_48e72,dist_83a8d
2692681000,0.999207,-0.005981,0.039246,-0.000183,0.0,0.003906,0.003906,0.059983,4.4,5.13,2.37
2704986000,0.999207,-0.005981,0.039246,-0.000183,0.0,0.003906,0.003906,0.072288,,,
2722792000,0.999207,-0.00592,0.039246,-0.000244,0.0,0.003906,0.003906,0.090094,,,
2733088000,0.999207,-0.00592,0.039307,-0.000244,-0.03125,0.003906,0.003906,0.10039,,,
2743627000,0.999207,-0.00592,0.039246,-0.000244,0.007812,0.003906,0.042969,0.110929,,,
2753179000,0.999207,-0.00592,0.039246,-0.000244,-0.03125,0.003906,0.003906,0.120481,,,
2762977000,0.999207,-0.00592,0.039246,-0.000244,-0.03125,0.003906,0.003906,0.130279,,,
2773406000,0.999207,-0.00592,0.039246,-0.000244,-0.03125,0.003906,0.003906,0.140708,,,
2782921000,0.999207,-0.00592,0.039246,-0.000244,0.007812,0.003906,0.035156,0.150223,,,
2793108000,0.999207,-0.00592,0.039307,-0.000244,0.007812,0.003906,-0.003906,0.16041,,,
2803135000,0.999207,-0.005981,0.039307,-0.000244,0.007812,0.003906,-0.003906,0.170437,,,
2813194000,0.999207,-0.00592,0.039307,-0.000244,0.007812,0.003906,-0.003906,0.180496,,,
2823244000,0.999207,-0.005981,0.039307,-0.000244,0.007812,0.003906,-0.003906,0.190546,,,
2842583000,0.999207,-0.00592,0.039307,-0.000244,0.007812,0.003906,-0.003906,0.209885,4.37,5.13,2.38
2862774000,0.999207,-0.00592,0.039307,-0.000244,0.007812,0.003906,-0.003906,0.230076,,,
2882811000,0.999207,-0.00592,0.039307,-0.000183,0.007812,0.003906,-0.003906,0.250113,,,
2902770000,0.999207,-0.005981,0.039246,-0.000183,-0.03125,0.003906,-0.003906,0.270072,,,
2933222000,0.999207,-0.00592,0.039246,-0.000244,0.007812,0.003906,0.035156,0.300524,,,
2942651000,0.999207,-0.00592,0.039246,-0.000244,-0.03125,0.039062,-0.003906,0.309953,,,
2962941000,0.999207,-0.005981,0.039246,-0.000244,0.007812,0.003906,-0.003906,0.330243,,,
2982368000,0.999207,-0.005981,0.039246,-0.000244,-0.03125,0.003906,-0.003906,0.34967,,,
3008739000,0.999207,-0.005981,0.039246,-0.000244,0.007812,0.003906,-0.003906,0.376041,,,
3022572000,0.999207,-0.005981,0.039246,-0.000244,-0.03125,0.003906,-0.003906,0.389874,,,
3042609000,0.999207,-0.005981,0.039246,-0.000244,0.015625,0.003906,0.035156,0.409911,4.37,5.15,2.39
3072427000,0.999207,-0.006042,0.039185,-0.000244,-0.023438,0.003906,-0.003906,0.439729,,,
3082446000,0.999207,-0.006042,0.039185,-0.000244,-0.023438,0.003906,0.035156,0.449748,,,
3102448000,0.999207,-0.006042,0.039185,-0.000244,0.015625,0.039062,0.035156,0.46975,,,
3122234000,0.999207,-0.006042,0.039185,-0.000183,0.015625,0.003906,0.035156,0.489536,,,
3152212000,0.999207,-0.006042,0.039185,-0.000244,0.015625,0.003906,-0.003906,0.519514,,,
3166571000,0.999207,-0.005981,0.039185,-0.000244,0.015625,0.003906,-0.003906,0.533873,,,
3181904000,0.999207,-0.005981,0.039185,-0.000244,-0.023438,0.003906,-0.003906,0.549206,,,
3201871000,0.999207,-0.006042,0.039185,-0.000244,0.015625,-0.035156,0.027344,0.569173,,,
3227507000,0.999207,-0.006042,0.039185,-0.000244,-0.023438,0.003906,0.027344,0.594809,,,
3242003000,0.999207,-0.006042,0.039185,-0.000244,0.015625,0.003906,0.027344,0.609305,4.35,5.13,2.37
3265273000,0.999207,-0.006042,0.039185,-0.000244,0.015625,0.003906,0.027344,0.632575,,,
3282093000,0.999207,-0.006042,0.039124,-0.000305,0.015625,0.003906,-0.011719,0.649395,,,
3301804000,0.999207,-0.006042,0.039124,-0.000305,0.015625,0.003906,0.027344,0.669106,,,
3321210000,0.999207,-0.006042,0.039124,-0.000244,-0.023438,0.003906,-0.011719,0.688512,,,
3342816000,0.999207,-0.006042,0.039124,-0.000244,0.015625,0.003906,0.027344,0.710118,,,
3366669000,0.999207,-0.006042,0.039124,-0.000244,-0.023438,0.003906,-0.011719,0.733971,,,
3381190000,0.999207,-0.006104,0.039124,-0.000244,0.015625,0.003906,-0.011719,0.748492,,,
3401591000,0.999207,-0.006042,0.039124,-0.000244,0.015625,0.003906,-0.011719,0.768893,,,
3427353000,0.999207,-0.006042,0.039124,-0.000244,-0.023438,0.039062,-0.011719,0.794655,,,
3440857000,0.999207,-0.006042,0.039124,-0.000244,-0.023438,0.003906,0.027344,0.808159,4.4,5.11,2.36
3461375000,0.999207,-0.006042,0.039124,-0.000244,0.015625,0.003906,0.027344,0.828677,,,
3486137000,0.999207,-0.005981,0.039124,-0.000244,-0.023438,0.003906,-0.011719,0.853439,,,
3501039000,0.999207,-0.005981,0.039124,-0.000244,-0.023438,0.039062,-0.011719,0.868341,,,
3522699000,0.999207,-0.005981,0.039124,-0.000244,0.015625,0.003906,0.027344,0.890001,,,
3546670000,0.999207,-0.006042,0.039124,-0.000244,0.015625,0.003906,-0.011719,0.913972,,,
3560434000,0.999207,-0.006042,0.039124,-0.000244,-0.023438,0.003906,-0.011719,0.927736,,,
3580587000,0.999207,-0.006042,0.039124,-0.000244,-0.023438,0.003906,0.027344,0.947889,,,
3605077000,0.999207,-0.006042,0.039124,-0.000244,0.015625,0.003906,0.027344,0.972379,,,
3620330000,0.999207,-0.006042,0.039124,-0.000244,0.015625,0.003906,0.027344,0.987632,,,
3650974000,0.999207,-0.006042,0.039124,-0.000244,-0.023438,0.003906,-0.011719,1.018276,4.35,5.14,2.38
3659966000,0.999207,-0.006042,0.039124,-0.000244,0.015625,0.003906,-0.011719,1.027268,,,
3680051000,0.999207,-0.006042,0.039124,-0.000244,0.015625,0.003906,0.027344,1.047353,,,
3710448000,0.999207,-0.006042,0.039124,-0.000244,0.015625,0.003906,0.027344,1.07775,,,
3720498000,0.999207,-0.006042,0.039124,-0.000244,0.015625,0.003906,0.027344,1.0878,,,
3740895000,0.999207,-0.006042,0.039124,-0.000244,0.015625,0.039062,0.027344,1.108197,,,
3765948000,0.999207,-0.006042,0.039124,-0.000244,0.015625,0.003906,-0.011719,1.13325,,,
3779768000,0.999207,-0.006042,0.039124,-0.000244,-0.023438,0.003906,-0.011719,1.14707,,,
3800004000,0.999207,-0.006042,0.039124,-0.000244,0.015625,0.003906,0.027344,1.167306,,,
3821030000,0.999207,-0.006042,0.039124,-0.000244,0.015625,0.003906,0.027344,1.188332,,,
3846097000,0.999207,-0.006042,0.039124,-0.000244,-0.023438,0.003906,0.027344,1.213399,4.36,5.09,2.36
3861674000,0.999207,-0.006042,0.039124,-0.000244,0.015625,0.003906,0.027344,1.228976,,,
3885320000,0.999207,-0.006042,0.039124,-0.000244,-0.03125,0.003906,0.019531,1.252622,,,
3899826000,0.999207,-0.006042,0.039124,-0.000244,-0.03125,0.039062,-0.019531,1.267128,,,
3919918000,0.999207,-0.006042,0.039124,-0.000244,0.015625,0.003906,0.019531,1.28722,,,
3946627000,0.999207,-0.006042,0.039124,-0.000244,0.015625,0.003906,0.019531,1.313929,,,
3959697000,0.999207,-0.006042,0.039124,-0.000244,0.007812,0.003906,0.019531,1.326999,,,
3979391000,0.999207,-0.006042,0.039124,-0.000244,-0.03125,0.003906,0.019531,1.346693,,,
4006561000,0.999207,-0.006042,0.039124,-0.000244,0.007812,0.003906,0.019531,1.373863,,,
4019784000,0.999207,-0.006042,0.039124,-0.000244,-0.03125,0.003906,0.019531,1.387086,,,
4041440000,0.999207,-0.006042,0.039124,-0.000244,-0.023438,0.039062,-0.019531,1.408742,,,
4069512000,0.999207,-0.006042,0.039124,-0.000244,0.015625,0.003906,-0.019531,1.436814,4.39,5.13,2.35
4079150000,0.999207,-0.006042,0.039124,-0.000244,0.015625,0.039062,-0.019531,1.446452,,,
4099886000,0.999207,-0.006042,0.039124,-0.000244,0.007812,0.003906,0.019531,1.467188,,,
4125692000,0.999207,-0.006042,0.039124,-0.000244,0.007812,0.003906,0.019531,1.492994,,,
4138966000,0.999207,-0.006042,0.039124,-0.000244,0.007812,0.003906,-0.019531,1.506268,,,
4159389000,0.999207,-0.006042,0.039124,-0.000244,0.007812,0.003906,0.019531,1.526691,,,
4189157000,0.999207,-0.006042,0.039124,-0.000244,0.007812,0.003906,0.019531,1.556459,,,
4198550000,0.999207,-0.006042,0.039124,-0.000244,0.007812,0.003906,0.019531,1.565852,,,
4228691000,0.999207,-0.006042,0.039124,-0.000244,0.007812,0.003906,0.019531,1.595993,,,
4238497000,0.999207,-0.006042,0.039124,-0.000244,-0.03125,0.003906,0.019531,1.605799,,,
4258383000,0.999207,-0.006042,0.039124,-0.000244,0.007812,0.003906,0.019531,1.625685,4.39,5.11,2.39
4278328000,0.999207,-0.006042,0.039124,-0.000244,-0.03125,0.003906,0.019531,1.64563,,,
4308823000,0.999207,-0.006042,0.039124,-0.000244,-0.03125,0.003906,0.019531,1.676125,,,
4318276000,0.999207,-0.006042,0.039124,-0.000244,0.007812,0.039062,0.019531,1.685578,,,
4339593000,0.999207,-0.006042,0.039124,-0.000244,-0.023438,0.003906,-0.019531,1.706895,,,
4368408000,0.999207,-0.006042,0.039124,-0.000244,0.015625,0.003906,0.019531,1.73571,,,
4379275000,0.999207,-0.006042,0.039124,-0.000244,0.015625,0.003906,0.019531,1.746577,,,
4398393000,0.999207,-0.006042,0.039124,-0.000244,0.054688,0.003906,0.019531,1.765695,,,
4419522000,0.999207,-0.006042,0.039124,-0.000244,0.015625,0.003906,0.019531,1.786824,,,
4438221000,0.999207,-0.006042,0.039124,-0.000244,0.015625,-0.003906,0.019531,1.805523,,,
4458056000,0.999207,-0.006042,0.039124,-0.000244,0.007812,-0.003906,0.019531,1.825358,4.38,5.1,2.38
4488224000,0.999207,-0.006042,0.039124,-0.000244,0.007812,-0.003906,-0.019531,1.855526,,,
4497831000,0.999207,-0.006042,0.039124,-0.000244,0.007812,0.003906,-0.019531,1.865133,,,
4518273000,0.999207,-0.006042,0.039124,-0.000244,-0.03125,0.003906,0.019531,1.885575,,,
4548364000,0.999207,-0.006042,0.039124,-0.000244,0.007812,0.003906,0.019531,1.915666,,,
4558123000,0.999207,-0.006042,0.039124,-0.000244,0.007812,0.003906,0.019531,1.925425,,,
4577977000,0.999207,-0.006042,0.039124,-0.000244,0.007812,0.003906,0.011719,1.945279,,,
4608156000,0.999207,-0.006042,0.039124,-0.000244,0.007812,0.003906,-0.027344,1.975458,,,
4617781000,0.999207,-0.006042,0.039124,-0.000244,-0.03125,0.003906,0.011719,1.985083,,,
4639475000,0.999207,-0.006042,0.039124,-0.000244,0.007812,0.003906,0.011719,2.006777,,,
4660329000,0.999207,-0.006042,0.039124,-0.000244,-0.03125,0.003906,0.011719,2.027631,4.4,5.09,2.4
4677643000,0.999207,-0.006042,0.039124,-0.000244,-0.03125,0.003906,0.011719,2.044945,,,
4698178000,0.999207,-0.006042,0.039124,-0.000244,0.007812,0.003906,-0.019531,2.06548,,,
4717636000,0.999207,-0.006042,0.039124,-0.000244,0.007812,0.003906,0.019531,2.084938,,,
4744120000,0.999207,-0.006042,0.039124,-0.000244,0.007812,0.003906,0.019531,2.111422,,,
4771166000,0.999207,-0.006042,0.039124,-0.000244,0.007812,0.003906,0.019531,2.138468,,,
4787046000,0.999207,-0.006042,0.039124,-0.000244,-0.03125,0.003906,0.019531,2.154348,,,
4801884000,0.999207,-0.006042,0.039124,-0.000244,0.007812,0.003906,0.011719,2.169186,,,
4817360000,0.999207,-0.006042,0.039124,-0.000244,0.007812,0.003906,-0.027344,2.184662,,,
4837290000,0.999207,-0.006042,0.039124,-0.000244,0.007812,0.003906,0.011719,2.204592,,,
4859815000,0.999207,-0.006042,0.039124,-0.000244,0.046875,0.039062,0.011719,2.227117,4.38,5.11,2.33
4877211000,0.999207,-0.006042,0.039124,-0.000244,0.007812,-0.003906,-0.027344,2.244513,,,
4907080000,0.999207,-0.006042,0.039124,-0.000244,-0.03125,-0.003906,0.011719,2.274382,,,
4917091000,0.999207,-0.006042,0.039124,-0.000244,0.007812,-0.003906,-0.027344,2.284393,,,
4944035000,0.999207,-0.006042,0.039124,-0.000244,-0.03125,-0.003906,0.011719,2.311337,,,
4957183000,0.999207,-0.006042,0.039124,-0.000244,0.007812,-0.003906,0.050781,2.324485,,,
4977885000,0.999207,-0.006042,0.039124,-0.000244,-0.03125,-0.003906,0.011719,2.345187,,,
5003931000,0.999207,-0.006042,0.039124,-0.000244,0.007812,-0.003906,0.011719,2.371233,,,
5017299000,0.999207,-0.006042,0.039124,-0.000244,-0.03125,-0.003906,-0.027344,2.384601,,,
5037267000,0.999207,-0.006042,0.039124,-0.000244,-0.03125,0.003906,0.011719,2.404569,,,
5065908000,0.999207,-0.006042,0.039124,-0.000244,0.007812,0.003906,0.011719,2.43321,4.38,5.13,2.39
5076588000,0.999207,-0.006042,0.039124,-0.000244,-0.03125,0.003906,0.011719,2.44389,,,
5097145000,0.999207,-0.006042,0.039124,-0.000244,-0.03125,0.003906,0.011719,2.464447,,,
5118065000,0.999207,-0.006042,0.039124,-0.000244,0.007812,0.003906,-0.027344,2.485367,,,
5146653000,0.999207,-0.006042,0.039124,-0.000244,0.015625,0.003906,-0.027344,2.513955,,,
5157582000,0.999207,-0.006042,0.039124,-0.000244,0.015625,0.003906,0.011719,2.524884,,,
5177086000,0.999207,-0.006042,0.039124,-0.000244,-0.023438,0.003906,0.011719,2.544388,,,
5206506000,0.999207,-0.006042,0.039124,-0.000244,0.015625,0.003906,0.011719,2.573808,,,
5216100000,0.999207,-0.006042,0.039124,-0.000244,0.015625,0.003906,0.011719,2.583402,,,
5246361000,0.999207,-0.006042,0.039124,-0.000244,0.015625,0.003906,0.011719,2.613663,,,
5266291000,0.999207,-0.006042,0.039124,-0.000244,-0.023438,0.003906,-0.027344,2.633593,4.36,5.11,2.39
5276348000,0.999207,-0.006042,0.039124,-0.000244,0.015625,0.003906,-0.027344,2.64365,,,
5297057000,0.999207,-0.006042,0.039124,-0.000244,0.015625,-0.035156,0.011719,2.664359,,,
5319165000,0.999207,-0.006042,0.039124,-0.000244,0.015625,0.003906,0.011719,2.686467,,,
5336556000,0.999207,-0.006042,0.039124,-0.000244,-0.023438,0.003906,0.011719,2.703858,,,
5356693000,0.999207,-0.006042,0.039124,-0.000244,-0.023438,0.039062,0.011719,2.723995,,,
5377906000,0.999207,-0.006042,0.039124,-0.000244,-0.023438,-0.035156,-0.027344,2.745208,,,
5402634000,0.999207,-0.006042,0.039124,-0.000244,-0.023438,0.003906,0.011719,2.769936,,,
5416798000,0.999207,-0.006042,0.039124,-0.000244,0.015625,0.003906,0.011719,2.7841,,,
5436918000,0.999207,-0.006042,0.039124,-0.000244,0.015625,0.003906,0.011719,2.80422,,,
5465461000,0.999207,-0.006042,0.039124,-0.000244,0.015625,0.003906,0.011719,2.832763,4.35,5.12,2.4
5485518000,0.999207,-0.006042,0.039124,-0.000244,0.015625,0.003906,0.011719,2.85282,,,
5495290000,0.999207,-0.006042,0.039124,-0.000244,0.015625,0.003906,0.011719,2.862592,,,
5516703000,0.999207,-0.006042,0.039124,-0.000244,0.015625,0.003906,0.011719,2.884005,,,
5541821000,0.999207,-0.006042,0.039124,-0.000244,0.015625,0.003906,0.011719,2.909123,,,
5556231000,0.999207,-0.006042,0.039124,-0.000244,0.015625,0.003906,-0.027344,2.923533,,,
5585232000,0.999207,-0.006042,0.039124,-0.000244,0.015625,0.003906,0.011719,2.952534,,,
5595515000,0.999207,-0.006042,0.039124,-0.000244,0.015625,0.003906,-0.027344,2.962817,,,
5616692000,0.999207,-0.006042,0.039124,-0.000244,-0.023438,0.003906,-0.027344,2.983994,,,
5645069000,0.999207,-0.006042,0.039124,-0.000244,0.015625,0.003906,0.011719,3.012371,,,
5655327000,0.999207,-0.006042,0.039124,-0.000244,-0.023438,0.003906,0.011719,3.022629,4.35,5.1,2.32
5684661000,0.999207,-0.006042,0.039124,-0.000244,-0.023438,0.003906,0.011719,3.051963,,,
5696470000,0.999207,-0.006042,0.039124,-0.000244,0.015625,0.003906,0.011719,3.063772,,,
5724790000,0.999207,-0.006042,0.039124,-0.000244,-0.023438,0.003906,0.011719,3.092092,,,
5745175000,0.999207,-0.006042,0.039124,-0.000244,-0.023438,0.003906,-0.027344,3.112477,,,
5761813000,0.999207,-0.006042,0.039124,-0.000244,0.015625,0.003906,-0.027344,3.129115,,,
5777057000,0.999207,-0.006042,0.039124,-0.000244,0.015625,0.003906,-0.027344,3.144359,,,
5805034000,0.999207,-0.006042,0.039124,-0.000244,0.015625,0.003906,-0.027344,3.172336,,,
5824762000,0.999207,-0.006042,0.039124,-0.000244,0.015625,0.003906,0.011719,3.192064,,,
5835233000,0.999207,-0.006042,0.039124,-0.000244,-0.023438,0.003906,0.011719,3.202535,,,
5864573000,0.999207,-0.006042,0.039124,-0.000244,0.015625,0.003906,0.011719,3.231875,4.37,5.11,2.33
5886597000,0.999207,-0.006042,0.039124,-0.000244,0.015625,0.003906,0.011719,3.253899,,,
5904586000,0.999207,-0.006042,0.039124,-0.000244,0.015625,0.003906,-0.027344,3.271888,,,
5924180000,0.999207,-0.006042,0.039124,-0.000244,-0.023438,0.003906,0.011719,3.291482,,,
5935370000,0.999207,-0.006042,0.039124,-0.000244,-0.023438,-0.035156,0.011719,3.302672,,,
5964102000,0.999207,-0.006042,0.039124,-0.000244,0.015625,0.003906,0.011719,3.331404,,,
5986249000,0.999207,-0.006042,0.039124,-0.000244,-0.023438,0.003906,-0.027344,3.353551,,,
6004307000,0.999207,-0.006042,0.039124,-0.000244,0.054688,0.039062,0.011719,3.371609,,,
6029735000,0.999207,-0.006042,0.039124,-0.000244,0.015625,0.003906,0.011719,3.397037,,,
6044183000,0.999207,-0.006042,0.039124,-0.000244,-0.023438,0.039062,0.011719,3.411485,,,
6063543000,0.999207,-0.006042,0.039124,-0.000244,0.007812,0.003906,0.011719,3.430845,4.39,5.09,2.36
6083985000,0.999207,-0.006042,0.039124,-0.000244,-0.03125,0.003906,0.011719,3.451287,,,
6107250000,0.999207,-0.006042,0.039124,-0.000244,-0.023438,0.003906,0.011719,3.474552,,,
6124092000,0.999207,-0.006042,0.039124,-0.000244,-0.023438,0.003906,0.011719,3.491394,,,
6146030000,0.999207,-0.006042,0.039124,-0.000305,0.015625,0.003906,0.011719,3.513332,,,
6164046000,0.999207,-0.006042,0.039124,-0.000244,-0.023438,0.039062,-0.027344,3.531348,,,
6183902000,0.999207,-0.006042,0.039124,-0.000305,0.015625,0.039062,-0.027344,3.551204,,,
6204055000,0.999207,-0.006042,0.039185,-0.000305,-0.023438,0.003906,-0.027344,3.571357,,,
6223620000,0.999207,-0.006042,0.039185,-0.000305,0.015625,0.003906,-0.027344,3.590922,,,
6243578000,0.999207,-0.006042,0.039185,-0.000305,-0.023438,0.03125,0.011719,3.61088,,,
6263480000,0.999207,-0.006042,0.039185,-0.000305,0.015625,-0.003906,-0.027344,3.630782,4.4,5.1,2.36
6283637000,0.999207,-0.006042,0.039185,-0.000305,-0.023438,-0.003906,0.011719,3.650939,,,
6303497000,0.999207,-0.006042,0.039185,-0.000305,0.015625,-0.003906,-0.027344,3.670799,,,
6323465000,0.999207,-0.006042,0.039185,-0.000305,-0.023438,0.003906,0.011719,3.690767,,,
6344302000,0.999207,-0.006042,0.039185,-0.000305,0.015625,0.003906,-0.027344,3.711604,,,
6362858000,0.999207,-0.006042,0.039185,-0.000305,0.015625,0.003906,0.011719,3.73016,,,
6383199000,0.999207,-0.005981,0.039185,-0.000305,0.015625,0.003906,0.011719,3.750501,,,
6407779000,0.999207,-0.005981,0.039185,-0.000305,0.007812,0.039062,-0.027344,3.775081,,,
6423994000,0.999207,-0.005981,0.039185,-0.000305,0.007812,0.003906,0.011719,3.791296,,,
6443382000,0.999207,-0.005981,0.039185,-0.000305,-0.03125,0.003906,0.011719,3.810684,,,
6463773000,0.999207,-0.005981,0.039185,-0.000305,-0.03125,0.003906,0.011719,3.831075,4.35,5.12,2.34
6488527000,0.999207,-0.005981,0.039185,-0.000305,0.007812,0.003906,0.011719,3.855829,,,
6503335000,0.999207,-0.006042,0.039185,-0.000305,0.007812,0.003906,-0.027344,3.870637,,,
6523019000,0.999207,-0.006042,0.039185,-0.000244,0.007812,0.003906,0.011719,3.890321,,,
6549723000,0.999207,-0.005981,0.039185,-0.000305,0.007812,0.003906,0.011719,3.917025,,,
6563132000,0.999207,-0.005981,0.039185,-0.000244,0.007812,0.003906,0.011719,3.930434,,,
6583148000,0.999207,-0.005981,0.039185,-0.000244,0.007812,0.003906,-0.027344,3.95045,,,
6612999000,0.999207,-0.005981,0.039185,-0.000244,0.007812,0.003906,0.011719,3.980301,,,
6629354000,0.999207,-0.005981,0.039185,-0.000305,0.007812,0.003906,-0.027344,3.996656,,,
6642811000,0.999207,-0.005981,0.039185,-0.000305,0.007812,0.003906,0.011719,4.010113,,,
6662220000,0.999207,-0.005981,0.039185,-0.000305,-0.03125,0.003906,0.011719,4.029522,4.37,5.13,2.37
6683160000,0.999207,-0.005981,0.039185,-0.000305,0.007812,0.003906,0.011719,4.050462,,,
6704872000,0.999207,-0.005981,0.039185,-0.000305,0.007812,-0.003906,-0.027344,4.072174,,,
6722323000,0.999207,-0.005981,0.039185,-0.000305,-0.03125,0.03125,0.011719,4.089625,,,
6742803000,0.999207,-0.005981,0.039185,-0.000305,0.007812,-0.003906,0.011719,4.110105,,,
6762617000,0.999207,-0.005981,0.039185,-0.000305,0.007812,-0.003906,0.011719,4.129919,,,
6788833000,0.999207,-0.005981,0.039185,-0.000305,0.007812,-0.003906,-0.027344,4.156135,,,
6802324000,0.999207,-0.005981,0.039185,-0.000305,0.007812,-0.003906,0.011719,4.169626,,,
6821826000,0.999207,-0.005981,0.039124,-0.000305,0.007812,-0.003906,-0.027344,4.189128,,,
6842084000,0.999207,-0.005981,0.039185,-0.000305,0.007812,-0.003906,-0.027344,4.209386,,,
6867831000,0.999207,-0.005981,0.039185,-0.000305,0.007812,-0.003906,0.011719,4.235133,4.39,5.13,2.36
6882350000,0.999207,-0.005981,0.039185,-0.000305,0.007812,-0.003906,0.011719,4.249652,,,
6902239000,0.999207,-0.005981,0.039185,-0.000305,0.007812,-0.003906,0.011719,4.269541,,,
6922340000,0.999207,-0.005981,0.039124,-0.000305,0.007812,0.003906,-0.027344,4.289642,,,
6945700000,0.999207,-0.005981,0.039124,-0.000305,0.007812,0.003906,0.011719,4.313002,,,
6961885000,0.999207,-0.005981,0.039185,-0.000305,0.007812,0.003906,0.011719,4.329187,,,
6981300000,0.999207,-0.005981,0.039185,-0.000305,0.007812,0.003906,-0.027344,4.348602,,,
7004534000,0.999207,-0.005981,0.039185,-0.000366,0.007812,0.003906,0.011719,4.371836,,,
7021183000,0.999207,-0.005981,0.039185,-0.000366,0.007812,0.003906,0.011719,4.388485,,,
7041151000,0.999207,-0.005981,0.039124,-0.000305,0.007812,0.003906,0.011719,4.408453,,,
7061689000,0.999207,-0.005981,0.039124,-0.000366,0.007812,0.003906,-0.027344,4.428991,4.41,5.11,2.38
7091499000,0.999207,-0.005981,0.039124,-0.000305,0.007812,0.003906,0.011719,4.458801,,,
7101467000,0.999207,-0.005981,0.039124,-0.000305,0.007812,0.003906,0.011719,4.468769,,,
7120782000,0.999207,-0.005981,0.039124,-0.000305,0.007812,0.003906,0.050781,4.488084,,,
7147790000,0.999207,-0.005981,0.039124,-0.000305,-0.03125,-0.003906,-0.027344,4.515092,,,
7161023000,0.999207,-0.005981,0.039124,-0.000305,0.007812,-0.003906,0.011719,4.528325,,,
7181782000,0.999207,-0.005981,0.039124,-0.000305,0.046875,-0.003906,0.011719,4.549084,,,
7206535000,0.999207,-0.005981,0.039124,-0.000305,-0.03125,-0.003906,0.011719,4.573837,,,
7221310000,0.999207,-0.005981,0.039124,-0.000305,0.007812,-0.003906,0.011719,4.588612,,,
7241077000,0.999207,-0.005981,0.039124,-0.000305,0.007812,-0.003906,-0.027344,4.608379,,,
7260720000,0.999207,-0.005981,0.039124,-0.000305,0.007812,0.03125,-0.027344,4.628022,4.37,5.11,2.37
7280441000,0.999207,-0.005981,0.039124,-0.000305,-0.03125,-0.003906,-0.027344,4.647743,,,
7300223000,0.999207,-0.005981,0.039124,-0.000305,0.007812,-0.003906,-0.027344,4.667525,,,
7329979000,0.999207,-0.005981,0.039124,-0.000305,0.007812,-0.003906,0.011719,4.697281,,,
7340650000,0.999207,-0.005981,0.039124,-0.000305,0.007812,0.03125,0.011719,4.707952,,,
7361408000,0.999207,-0.005981,0.039124,-0.000366,-0.03125,0.03125,0.011719,4.72871,,,
7380092000,0.999207,-0.00592,0.039124,-0.000366,0.007812,-0.003906,0.011719,4.747394,,,
7400666000,0.999207,-0.00592,0.039124,-0.000366,0.007812,-0.003906,0.011719,4.767968,,,
7427349000,0.999207,-0.00592,0.039124,-0.000366,0.007812,-0.003906,0.011719,4.794651,,,
7440610000,0.999207,-0.00592,0.039124,-0.000366,0.007812,-0.003906,0.011719,4.807912,,,
7459644000,0.999207,-0.00592,0.039124,-0.000366,0.007812,0.03125,0.011719,4.826946,4.36,5.13,2.36
7480311000,0.999207,-0.00592,0.039124,-0.000366,0.007812,-0.003906,0.011719,4.847613,,,
7500152000,0.999207,-0.005859,0.039124,-0.000366,-0.03125,-0.003906,0.011719,4.867454,,,
7521986000,0.999207,-0.005859,0.039124,-0.000305,-0.03125,-0.003906,0.011719,4.889288,,,
7545245000,0.999207,-0.00592,0.039124,-0.000366,0.007812,0.03125,0.011719,4.912547,,,
7559911000,0.999207,-0.00592,0.039124,-0.000366,0.007812,0.03125,0.011719,4.927213,,,
7579497000,0.999207,-0.00592,0.039124,-0.000366,0.007812,-0.003906,0.003906,4.946799,,,
7599705000,0.999207,-0.00592,0.039124,-0.000366,0.007812,-0.003906,0.003906,4.967007,,,
7626993000,0.999207,-0.00592,0.039124,-0.000366,0.007812,-0.003906,0.003906,4.994295,,,
7639634000,0.999207,-0.00592,0.039124,-0.000366,0.007812,-0.042969,0.003906,5.006936,,,
7659511000,0.999207,-0.00592,0.039124,-0.000366,0.007812,-0.003906,0.003906,5.026813,4.37,5.11,2.37
7680695000,0.999207,-0.00592,0.039124,-0.000366,0.007812,-0.003906,0.003906,5.047997,,,
7706341000,0.999207,-0.005981,0.039124,-0.000366,0.007812,-0.003906,0.003906,5.073643,,,
7719828000,0.999207,-0.005981,0.039062,-0.000366,0.007812,-0.003906,0.003906,5.08713,,,
7739888000,0.999207,-0.005981,0.039062,-0.000366,0.007812,0.03125,0.003906,5.10719,,,
7768979000,0.999207,-0.005981,0.039062,-0.000366,0.007812,-0.003906,0.003906,5.136281,,,
7780735000,0.999207,-0.005981,0.039062,-0.000366,0.007812,-0.003906,0.003906,5.148037,,,
7800062000,0.999207,-0.005981,0.039062,-0.000366,-0.03125,-0.003906,0.003906,5.167364,,,
7819393000,0.999207,-0.00592,0.039062,-0.000366,0.007812,-0.003906,0.003906,5.186695,,,
7838955000,0.999207,-0.00592,0.039062,-0.000366,0.007812,-0.003906,0.003906,5.206257,,,
7859364000,0.999207,-0.005981,0.039062,-0.000366,0.0,0.03125,0.003906,5.226666,4.33,5.11,2.35
7885306000,0.999207,-0.005981,0.039062,-0.000366,0.0,-0.003906,-0.035156,5.252608,,,
7898823000,0.999207,-0.005981,0.039062,-0.000366,0.0,-0.003906,-0.035156,5.266125,,,
7918757000,0.999207,-0.005981,0.039062,-0.000366,0.0,-0.003906,0.003906,5.286059,,,
7949156000,0.999207,-0.005981,0.039062,-0.000366,0.0,-0.003906,0.003906,5.316458,,,
7958628000,0.999207,-0.005981,0.039062,-0.000305,-0.039062,0.03125,0.003906,5.32593,,,
7978619000,0.999207,-0.00592,0.039062,-0.000305,0.0,0.03125,0.042969,5.345921,,,
7998775000,0.999207,-0.005981,0.039062,-0.000305,0.0,-0.003906,0.003906,5.366077,,,
8028874000,0.999207,-0.005981,0.039062,-0.000305,0.0,0.03125,0.003906,5.396176,,,
8045192000,0.999207,-0.00592,0.039062,-0.000305,0.0,-0.003906,0.003906,5.412494,,,
8058392000,0.999207,-0.005981,0.039062,-0.000305,0.007812,-0.003906,0.003906,5.425694,4.34,5.11,2.35
8078972000,0.999207,-0.005981,0.039062,-0.000305,0.0,-0.003906,0.003906,5.446274,,,
8108779000,0.999207,-0.005981,0.039124,-0.000305,0.007812,-0.003906,0.003906,5.476081,,,
8124177000,0.999207,-0.005981,0.039124,-0.000305,0.046875,-0.003906,0.003906,5.491479,,,
8139289000,0.999207,-0.005981,0.039124,-0.000244,0.007812,-0.003906,0.003906,5.506591,,,
8158699000,0.999207,-0.00592,0.039124,-0.000244,0.007812,-0.003906,0.003906,5.526001,,,
8183573000,0.999207,-0.00592,0.039062,-0.000244,0.007812,0.03125,0.003906,5.550875,,,
8198468000,0.999207,-0.00592,0.039124,-0.000244,0.007812,-0.003906,0.003906,5.56577,,,
8218893000,0.999207,-0.005981,0.039062,-0.000244,0.007812,-0.003906,0.003906,5.586195,,,
8245320000,0.999207,-0.00592,0.039062,-0.000244,0.0,-0.003906,0.003906,5.612622,,,
8258072000,0.999207,-0.00592,0.039062,-0.000244,-0.007812,-0.003906,0.003906,5.625374,4.36,5.15,2.35
8277855000,0.999207,-0.00592,0.039062,-0.000244,-0.007812,0.03125,0.003906,5.645157,,,
8308368000,0.999207,-0.00592,0.039001,-0.000244,0.0,0.03125,0.003906,5.67567,,,
8318115000,0.999207,-0.005981,0.039001,-0.000244,0.0,-0.003906,0.003906,5.685417,,,
8338476000,0.999207,-0.005981,0.039001,-0.000183,0.0,0.03125,0.003906,5.705778,,,
8357980000,0.999207,-0.005981,0.039001,-0.000244,0.0,-0.003906,-0.035156,5.725282,,,
8378505000,0.999207,-0.006042,0.039001,-0.000244,-0.039062,0.03125,0.003906,5.745807,,,
8397964000,0.999207,-0.006042,0.039001,-0.000244,-0.039062,-0.003906,0.003906,5.765266,,,
8427287000,0.999207,-0.006042,0.039001,-0.000244,0.0,0.03125,0.003906,5.794589,,,
8437469000,0.999207,-0.005981,0.039001,-0.000244,0.0,-0.003906,0.003906,5.804771,,,
8458040000,0.999207,-0.006042,0.039001,-0.000244,0.0,0.03125,0.003906,5.825342,,,
8477684000,0.999207,-0.005981,0.039001,-0.000183,0.0,-0.003906,0.003906,5.844986,,,
8499611000,0.999207,-0.005981,0.039001,-0.000183,0.0,-0.042969,0.003906,5.866913,,,
8523413000,0.999207,-0.005981,0.039001,-0.000183,0.0,-0.003906,-0.035156,5.890715,,,
8537123000,0.999207,-0.006042,0.039001,-0.000244,0.039062,0.03125,0.011719,5.904425,,,
8559868000,0.999207,-0.006042,0.039001,-0.000183,-0.039062,-0.003906,0.011719,5.92717,,,
8576908000,0.999207,-0.006042,0.039001,-0.000183,0.0,-0.003906,-0.027344,5.94421,,,
8597336000,0.999207,-0.006042,0.039001,-0.000183,0.0,-0.003906,0.011719,5.964638,,,
8617191000,0.999207,-0.006042,0.039001,-0.000183,0.007812,-0.003906,0.011719,5.984493,,,
8638836000,0.999207,-0.006042,0.039001,-0.000183,-0.03125,0.03125,0.011719,6.006138,,,
8656990000,0.999207,-0.006042,0.039001,-0.000183,0.007812,-0.003906,0.011719,6.024292,,,
8677407000,0.999207,-0.006042,0.039001,-0.000183,0.007812,0.03125,-0.027344,6.044709,,,
8698019000,0.999207,-0.006042,0.039001,-0.000183,-0.03125,-0.003906,0.011719,6.065321,,,
8721678000,0.999207,-0.006042,0.039001,-0.000183,0.007812,-0.003906,0.011719,6.08898,,,
8737164000,0.999207,-0.006042,0.039001,-0.000183,-0.03125,-0.003906,0.011719,6.104466,,,
8757282000,0.999207,-0.006042,0.039001,-0.000183,0.007812,-0.003906,0.011719,6.124584,,,
8786866000,0.999207,-0.006042,0.039001,-0.000183,-0.03125,0.03125,0.011719,6.154168,,,
8796798000,0.999207,-0.006042,0.039001,-0.000183,-0.03125,-0.003906,0.011719,6.1641,,,
8817726000,0.999207,-0.006042,0.039001,-0.000183,0.007812,0.03125,0.011719,6.185028,,,
8837048000,0.999207,-0.006042,0.039001,-0.000183,0.007812,-0.003906,0.011719,6.20435,,,
8866708000,0.999207,-0.006042,0.039001,-0.000183,0.007812,-0.003906,0.011719,6.23401,,,
8876277000,0.999207,-0.006042,0.039001,-0.000183,-0.03125,-0.003906,0.011719,6.243579,,,
8896806000,0.999207,-0.006042,0.039001,-0.000183,0.007812,-0.003906,0.003906,6.264108,,,
8926068000,0.999207,-0.006042,0.039001,-0.000183,-0.03125,-0.003906,0.003906,6.29337,,,
8936160000,0.999207,-0.006042,0.039001,-0.000183,0.007812,-0.003906,-0.035156,6.303462,,,
8966098000,0.999207,-0.006042,0.039001,-0.000183,0.007812,-0.003906,0.003906,6.3334,,,
8976326000,0.999207,-0.006042,0.039001,-0.000183,0.007812,-0.003906,0.003906,6.343628,,,
8996834000,0.999207,-0.006042,0.039001,-0.000183,0.007812,-0.003906,0.042969,6.364136,,,
9016897000,0.999207,-0.006042,0.039001,-0.000183,-0.03125,-0.003906,-0.035156,6.384199,,,
9036376000,0.999207,-0.006042,0.039001,-0.000183,0.007812,-0.003906,0.003906,6.403678,,,
9058831000,0.999207,-0.006042,0.039001,-0.000183,0.007812,-0.003906,0.003906,6.426133,,,
9076811000,0.999207,-0.006042,0.039001,-0.000183,0.007812,0.03125,0.003906,6.444113,,,
9105160000,0.999207,-0.006042,0.039001,-0.000183,0.007812,-0.003906,0.003906,6.472462,,,
9115375000,0.999207,-0.006042,0.039001,-0.000183,-0.03125,0.03125,0.042969,6.482677,,,
9136804000,0.999207,-0.006042,0.039001,-0.000183,-0.03125,-0.003906,0.003906,6.504106,,,
9157234000,0.999207,-0.006042,0.039001,-0.000183,-0.03125,-0.003906,0.003906,6.524536,,,
9176214000,0.999207,-0.006042,0.039001,-0.000183,-0.03125,-0.003906,0.003906,6.543516,,,
9196420000,0.999207,-0.006042,0.039001,-0.000183,0.007812,-0.003906,0.003906,6.563722,,,
9216441000,0.999207,-0.006042,0.039001,-0.000183,-0.03125,-0.003906,0.003906,6.583743,,,
9244957000,0.999207,-0.006042,0.039001,-0.000183,-0.023438,-0.003906,0.003906,6.612259,,,
9255163000,0.999207,-0.006042,0.039001,-0.000183,0.015625,-0.003906,0.003906,6.622465,,,
9276622000,0.999207,-0.006042,0.039001,-0.000183,0.015625,-0.003906,0.003906,6.643924,,,
9296428000,0.999207,-0.006042,0.039001,-0.000183,0.015625,-0.003906,0.003906,6.66373,,,
9316411000,0.999207,-0.006042,0.039001,-0.000183,-0.023438,-0.003906,0.003906,6.683713,,,
9341803000,0.999207,-0.006042,0.039001,-0.000183,0.015625,-0.003906,0.003906,6.709105,4.35,5.12,2.34
9356231000,0.999207,-0.006042,0.039001,-0.000183,-0.023438,-0.003906,0.003906,6.723533,,,
9384629000,0.999207,-0.006042,0.039001,-0.000183,0.015625,-0.003906,0.003906,6.751931,,,
9395234000,0.999207,-0.006042,0.039001,-0.000183,0.015625,-0.003906,0.003906,6.762536,,,
9424631000,0.999207,-0.006042,0.039001,-0.000183,0.015625,0.03125,0.003906,6.791933,,,
9444432000,0.999207,-0.006042,0.03894,-0.000183,0.015625,-0.003906,0.003906,6.811734,,,
9455367000,0.999207,-0.006042,0.039001,-0.000183,0.007812,-0.003906,0.003906,6.822669,,,
9476705000,0.999207,-0.006042,0.03894,-0.000183,0.007812,-0.003906,0.003906,6.844007,,,
9504871000,0.999207,-0.006104,0.03894,-0.000183,0.007812,-0.003906,0.042969,6.872173,,,
9524698000,0.999207,-0.006042,0.039001,-0.000183,0.007812,0.03125,0.003906,6.892,,,
9541651000,0.999207,-0.006042,0.03894,-0.000183,0.007812,-0.003906,0.003906,6.908953,4.38,5.1,2.37
9567162000,0.999207,-0.006042,0.03894,-0.000183,0.007812,0.03125,0.003906,6.934464,,,
9584527000,0.999207,-0.006042,0.039001,-0.000183,-0.03125,-0.003906,0.042969,6.951829,,,
9604318000,0.999207,-0.006042,0.039001,-0.000183,-0.03125,-0.003906,0.003906,6.97162,,,
9624021000,0.999207,-0.006104,0.03894,-0.000183,0.007812,-0.003906,0.003906,6.991323,,,
9645550000,0.999207,-0.006104,0.03894,-0.000183,0.007812,0.03125,0.003906,7.012852,,,
9655314000,0.999207,-0.006104,0.03894,-0.000183,0.007812,-0.003906,0.003906,7.022616,,,
9684342000,0.999207,-0.006042,0.03894,-0.000183,0.007812,-0.003906,0.003906,7.051644,,,
9695293000,0.999207,-0.006042,0.03894,-0.000183,0.007812,-0.003906,0.003906,7.062595,,,
9726203000,0.999207,-0.006104,0.03894,-0.000183,0.007812,-0.003906,0.042969,7.093505,,,
9744086000,0.999207,-0.006104,0.03894,-0.000183,0.007812,-0.003906,0.003906,7.111388,4.38,5.13,2.36
9763734000,0.999207,-0.006104,0.03894,-0.000183,0.007812,-0.003906,0.042969,7.131036,,,
9794417000,0.999207,-0.006104,0.03894,-0.000183,0.007812,-0.003906,0.003906,7.161719,,,
9809964000,0.999207,-0.006104,0.03894,-0.000183,0.007812,-0.003906,0.003906,7.177266,,,
9823908000,0.999207,-0.006104,0.03894,-0.000183,0.007812,0.03125,0.003906,7.19121,,,
9843796000,0.999207,-0.006104,0.03894,-0.000183,0.007812,-0.003906,0.003906,7.211098,,,
9865000000,0.999207,-0.006104,0.03894,-0.000183,0.007812,-0.003906,0.003906,7.232302,,,
9889346000,0.999207,-0.006104,0.03894,-0.000183,0.007812,-0.003906,0.042969,7.256648,,,
9903824000,0.999207,-0.006165,0.03894,-0.000183,-0.03125,-0.003906,-0.035156,7.271126,,,
9923495000,0.999207,-0.006165,0.03894,-0.000183,0.007812,-0.003906,0.003906,7.290797,,,
9949591000,0.999207,-0.006104,0.03894,-0.000183,0.007812,-0.003906,-0.035156,7.316893,4.34,5.12,2.37
9963414000,0.999207,-0.006104,0.03894,-0.000183,0.046875,-0.003906,0.003906,7.330716,,,
9983320000,0.999207,-0.006165,0.03894,-0.000183,0.007812,-0.003906,0.003906,7.350622,,,
10004630000,0.999207,-0.006104,0.038879,-0.000183,0.007812,0.03125,0.003906,7.371932,,,
10023136000,0.999207,-0.006104,0.038879,-0.000122,0.007812,-0.003906,0.003906,7.390438,,,
10042867000,0.999207,-0.006104,0.038879,-0.000122,0.007812,-0.003906,-0.035156,7.410169,,,
10063564000,0.999207,-0.006104,0.038879,-0.000122,0.007812,0.03125,0.003906,7.430866,,,
10090019000,0.999207,-0.006165,0.038818,-0.000122,0.007812,-0.003906,0.003906,7.457321,,,
10103176000,0.999207,-0.006165,0.038818,-0.000122,-0.03125,-0.003906,0.003906,7.470478,,,
10123291000,0.999207,-0.006165,0.038818,-0.000122,-0.03125,-0.003906,0.003906,7.490593,,,
10142871000,0.999207,-0.006165,0.038879,-0.000122,0.007812,-0.003906,0.011719,7.510173,4.39,5.11,2.4
10162647000,0.999207,-0.006226,0.038818,-0.000122,-0.03125,0.003906,0.011719,7.529949,,,
10186042000,0.999207,-0.006165,0.038818,-0.000122,0.007812,0.039062,0.011719,7.553344,,,
10202478000,0.999207,-0.006165,0.038818,-0.000183,0.007812,0.003906,0.011719,7.56978,,,
10224779000,0.999207,-0.006165,0.038818,-0.000183,0.007812,0.003906,0.011719,7.592081,,,
10242644000,0.999207,-0.006165,0.038818,-0.000122,0.007812,0.039062,0.011719,7.609946,,,
10262855000,0.999207,-0.006165,0.038818,-0.000122,0.007812,-0.003906,0.011719,7.630157,,,
10282767000,0.999207,-0.006165,0.038818,-0.000183,0.007812,0.023438,0.011719,7.650069,,,
10302941000,0.999207,-0.006165,0.038818,-0.000122,0.007812,-0.003906,0.011719,7.670243,,,
10322482000,0.999207,-0.006165,0.038818,-0.000122,0.007812,-0.003906,0.003906,7.689784,,,
10342784000,0.999207,-0.006165,0.038879,-0.000183,0.007812,0.03125,0.003906,7.710086,4.36,5.1,2.37
10366545000,0.999207,-0.006165,0.038879,-0.000183,0.007812,-0.011719,0.003906,7.733847,,,
10382581000,0.999207,-0.006165,0.038879,-0.000183,-0.03125,-0.011719,0.003906,7.749883,,,
10402178000,0.999207,-0.006165,0.038879,-0.000183,0.007812,-0.011719,0.003906,7.76948,,,
10421621000,0.999207,-0.006165,0.038879,-0.000183,-0.03125,-0.011719,0.003906,7.788923,,,
10441934000,0.999207,-0.006165,0.038879,-0.000183,0.007812,0.023438,0.003906,7.809236,,,
10461630000,0.999207,-0.006165,0.038879,-0.000183,0.007812,0.023438,0.003906,7.828932,,,
10485929000,0.999207,-0.006165,0.038879,-0.000183,0.007812,0.023438,0.003906,7.853231,,,
10501657000,0.999207,-0.006165,0.038879,-0.000183,0.007812,-0.011719,0.003906,7.868959,,,
10522035000,0.999207,-0.006165,0.038879,-0.000183,0.007812,-0.011719,0.042969,7.889337,,,
10542645000,0.999207,-0.006165,0.038879,-0.000183,-0.03125,-0.011719,0.003906,7.909947,4.38,5.13,2.4
10567348000,0.999207,-0.006165,0.038879,-0.000183,0.007812,-0.011719,-0.035156,7.93465,,,
10581503000,0.999207,-0.006165,0.038879,-0.000183,-0.03125,0.023438,0.003906,7.948805,,,
10601366000,0.999207,-0.006165,0.038879,-0.000183,0.007812,-0.011719,0.003906,7.968668,,,
10625468000,0.999207,-0.006165,0.038879,-0.000183,0.007812,-0.011719,0.003906,7.99277,,,
10641288000,0.999207,-0.006165,0.038879,-0.000183,0.007812,-0.011719,0.003906,8.00859,,,
10661072000,0.999207,-0.006165,0.038879,-0.000183,0.007812,-0.003906,0.042969,8.028374,,,
10680764000,0.999207,-0.006165,0.038879,-0.000183,-0.03125,0.03125,0.003906,8.048066,,,
10711970000,0.999207,-0.006165,0.038879,-0.000183,0.007812,-0.003906,0.003906,8.079272,,,
10725578000,0.999207,-0.006165,0.038879,-0.000183,0.007812,-0.003906,0.042969,8.09288,,,
10740820000,0.999207,-0.006165,0.038879,-0.000183,0.007812,-0.003906,0.003906,8.108122,4.38,5.09,2.4
10761255000,0.999207,-0.006165,0.038879,-0.000183,0.007812,-0.003906,-0.035156,8.128557,,,
10783275000,0.999207,-0.006165,0.038879,-0.000183,-0.03125,0.03125,0.003906,8.150577,,,
10807055000,0.999207,-0.006165,0.038818,-0.000183,-0.023438,0.03125,0.003906,8.174357,,,
10820675000,0.999207,-0.006226,0.038818,-0.000183,0.015625,0.003906,-0.035156,8.187977,,,
10840438000,0.999207,-0.006165,0.038879,-0.000183,0.015625,0.003906,-0.035156,8.20774,,,
10870619000,0.999207,-0.006165,0.038879,-0.000122,0.015625,0.003906,0.003906,8.237921,,,
10880671000,0.999207,-0.006165,0.038879,-0.000183,-0.023438,-0.003906,0.003906,8.247973,,,
10902913000,0.999207,-0.006165,0.038879,-0.000183,0.015625,0.003906,0.042969,8.270215,,,
10920724000,0.999207,-0.006165,0.038879,-0.000183,0.054688,0.003906,0.003906,8.288026,,,
10946821000,0.999207,-0.006165,0.038879,-0.000183,0.015625,0.03125,0.003906,8.314123,4.36,5.13,2.37
10960249000,0.999207,-0.006165,0.038879,-0.000122,0.046875,-0.003906,0.003906,8.327551,,,
10980094000,0.999207,-0.006165,0.038879,-0.000122,0.007812,-0.003906,0.003906,8.347396,,,
11010778000,0.999207,-0.006104,0.038879,-0.000122,0.007812,-0.003906,0.003906,8.37808,,,
11020048000,0.999207,-0.006104,0.038879,-0.000122,0.007812,-0.003906,0.003906,8.38735,,,
11041092000,0.999207,-0.006104,0.038818,-0.000122,0.007812,-0.003906,0.042969,8.408394,,,
11060133000,0.999207,-0.006104,0.038818,-0.000122,0.007812,-0.003906,0.003906,8.427435,,,
11080800000,0.999207,-0.006104,0.038818,-0.000122,-0.03125,-0.003906,-0.035156,8.448102,,,
11100548000,0.999207,-0.006104,0.038818,-0.000122,0.007812,-0.003906,0.003906,8.46785,,,
11120515000,0.999207,-0.006104,0.038818,-0.000122,0.007812,-0.003906,-0.035156,8.487817,,,
11140200000,0.999207,-0.006104,0.038818,-0.000122,0.007812,-0.003906,0.003906,8.507502,4.35,5.13,2.4
11170476000,0.999207,-0.006104,0.038818,-0.000122,0.007812,-0.003906,0.042969,8.537778,,,
11180203000,0.999207,-0.006104,0.038818,-0.000122,0.007812,-0.003906,0.003906,8.547505,,,
11199804000,0.999207,-0.006042,0.038818,-0.000122,0.007812,-0.003906,0.042969,8.567106,,,
11230425000,0.999207,-0.006104,0.038818,-0.000183,0.007812,-0.003906,0.003906,8.597727,,,
11239837000,0.999207,-0.006104,0.038879,-0.000183,-0.03125,0.03125,0.003906,8.607139,,,
11259897000,0.999207,-0.006042,0.038818,-0.000183,-0.03125,0.03125,0.003906,8.627199,,,
11290055000,0.999207,-0.006104,0.038818,-0.000183,0.007812,-0.003906,0.003906,8.657357,,,
11306866000,0.999207,-0.006104,0.038818,-0.000183,0.007812,0.03125,0.003906,8.674168,,,
11319575000,0.999207,-0.006104,0.038818,-0.000244,-0.03125,-0.003906,0.003906,8.686877,,,
11339451000,0.999207,-0.006104,0.038818,-0.000244,0.007812,-0.003906,0.042969,8.706753,4.35,5.1,2.39
11369971000,0.999207,-0.006104,0.038818,-0.000244,0.007812,-0.003906,0.003906,8.737273,,,
11384814000,0.999207,-0.006104,0.038818,-0.000244,0.007812,-0.003906,0.003906,8.752116,,,
11399350000,0.999207,-0.006104,0.038879,-0.000244,0.007812,-0.003906,0.003906,8.766652,,,
11419515000,0.999207,-0.006165,0.038818,-0.000244,0.007812,-0.003906,0.003906,8.786817,,,
11449356000,0.999207,-0.006165,0.038818,-0.000305,0.007812,-0.003906,-0.035156,8.816658,,,
11462840000,0.999207,-0.006165,0.038818,-0.000305,0.007812,0.03125,0.003906,8.830142,,,
11479538000,0.999207,-0.006165,0.038818,-0.000305,0.007812,-0.003906,0.003906,8.84684,,,
11499394000,0.999207,-0.006104,0.038818,-0.000305,0.007812,-0.003906,0.042969,8.866696,,,
11529735000,0.999207,-0.006104,0.038818,-0.000244,0.007812,0.03125,-0.035156,8.897037,,,
11538899000,0.999207,-0.006104,0.038818,-0.000244,0.007812,-0.003906,0.003906,8.906201,4.35,5.11,2.38
11560981000,0.999207,-0.006104,0.038818,-0.000244,-0.03125,-0.003906,0.003906,8.928283,,,
11585397000,0.999207,-0.006104,0.038757,-0.000244,-0.03125,-0.003906,0.003906,8.952699,,,
11598726000,0.999207,-0.006104,0.038757,-0.000244,0.046875,-0.003906,0.003906,8.966028,,,
11621413000,0.999207,-0.006104,0.038757,-0.000244,0.007812,-0.003906,0.003906,8.988715,,,
11644099000,0.999207,-0.006042,0.038757,-0.000244,0.007812,-0.003906,0.003906,9.011401,,,
11658623000,0.999207,-0.006042,0.038818,-0.000244,0.007812,-0.003906,0.003906,9.025925,,,
11679245000,0.999207,-0.006042,0.038818,-0.000244,-0.03125,-0.003906,0.003906,9.046547,,,
11698363000,0.999207,-0.006042,0.038818,-0.000244,0.007812,-0.003906,0.003906,9.065665,,,
11720037000,0.999207,-0.006042,0.038818,-0.000244,0.007812,-0.003906,0.003906,9.087339,,,
11739180000,0.999207,-0.006042,0.038818,-0.000244,0.046875,-0.003906,0.003906,9.106482,4.36,5.13,2.4
11758201000,0.999207,-0.006042,0.038818,-0.000244,-0.03125,-0.003906,0.003906,9.125503,,,
11777998000,0.999207,-0.006042,0.038818,-0.000244,0.007812,-0.003906,0.003906,9.1453,,,
11798135000,0.999207,-0.006042,0.038818,-0.000244,0.007812,-0.003906,0.003906,9.165437,,,
11828294000,0.999207,-0.006042,0.038818,-0.000244,0.007812,-0.003906,0.003906,9.195596,,,
11843811000,0.999207,-0.006042,0.038818,-0.000244,0.007812,-0.003906,0.003906,9.211113,,,
11857758000,0.999207,-0.006042,0.038818,-0.000244,0.007812,-0.003906,0.003906,9.22506,,,
11878237000,0.999207,-0.006042,0.038818,-0.000244,0.007812,-0.003906,0.003906,9.245539,,,
11898281000,0.999207,-0.006042,0.038818,-0.000244,0.007812,-0.003906,0.003906,9.265583,,,
11922620000,0.999207,-0.006042,0.038818,-0.000244,0.007812,-0.003906,0.003906,9.289922,,,
11937816000,0.999207,-0.006042,0.038818,-0.000244,0.007812,-0.003906,0.003906,9.305118,4.39,5.08,2.38
11958101000,0.999207,-0.006042,0.038818,-0.000244,0.007812,0.03125,0.003906,9.325403,,,
11984565000,0.999207,-0.006042,0.038818,-0.000244,-0.03125,-0.003906,0.042969,9.351867,,,
11997688000,0.999207,-0.006042,0.038818,-0.000244,0.007812,-0.003906,0.003906,9.36499,,,
12023943000,0.999207,-0.006042,0.038818,-0.000244,0.007812,-0.003906,0.003906,9.391245,,,
12037698000,0.999207,-0.006042,0.038818,-0.000244,0.0,-0.003906,-0.035156,9.405,,,
12064413000,0.999207,-0.006042,0.038818,-0.000244,0.0,-0.003906,0.003906,9.431715,,,
12077526000,0.999207,-0.006042,0.038818,-0.000244,0.0,0.03125,0.003906,9.444828,,,
12097590000,0.999207,-0.006042,0.038818,-0.000244,0.0,-0.003906,0.003906,9.464892,,,
12118003000,0.999207,-0.006042,0.038818,-0.000244,0.0,-0.003906,0.042969,9.485305,,,
12147184000,0.999207,-0.006042,0.038818,-0.000244,0.0,0.03125,0.003906,9.514486,4.42,5.14,2.39
12157409000,0.999207,-0.006042,0.038818,-0.000244,0.0,-0.003906,0.042969,9.524711,,,
12177481000,0.999207,-0.006042,0.038818,-0.000244,0.0,-0.042969,-0.035156,9.544783,,,
12207633000,0.999207,-0.006042,0.038818,-0.000244,0.0,-0.003906,-0.035156,9.574935,,,
12217205000,0.999207,-0.006042,0.038818,-0.000244,0.0,-0.003906,0.003906,9.584507,,,
12237203000,0.999207,-0.006042,0.038818,-0.000244,-0.039062,-0.003906,0.003906,9.604505,,,
12257288000,0.999207,-0.006042,0.038818,-0.000244,0.0,-0.003906,0.003906,9.62459,,,
12277548000,0.999207,-0.006836,0.03894,0.000305,1.292969,-0.335938,-0.035156,9.64485,,,
12297325000,0.999207,-0.007507,0.038879,0.000732,1.660156,0.179688,-0.113281,9.664627,,,
12317468000,0.999207,-0.007751,0.038513,0.000793,0.839844,-0.074219,-0.035156,9.68477,,,
12346814000,0.999268,-0.008301,0.038086,0.000916,-0.582031,0.277344,-0.648438,9.714116,4.38,5.11,2.39
12357255000,0.999268,-0.008911,0.03772,0.000732,-0.753906,-0.019531,-0.152344,9.724557,,,
12377435000,0.999268,-0.009827,0.03717,0.000732,-0.996094,-0.308594,1.304688,9.744737,,,
12397412000,0.999268,-0.011414,0.036377,0.000549,-0.0625,0.449219,-1.222656,9.764714,,,
12427323000,0.999268,-0.011719,0.036255,0.00061,-0.070312,-0.179688,0.652344,9.794625,,,
12444396000,0.999268,-0.01178,0.036133,0.00061,0.425781,0.089844,-0.035156,9.811698,,,
12457161000,0.999268,-0.011841,0.036011,0.000671,0.304688,-0.019531,0.078125,9.824463,,,
12477236000,0.999268,-0.012085,0.035767,0.000671,0.179688,0.019531,-0.074219,9.844538,,,
12506974000,0.999268,-0.012329,0.035461,0.00061,0.144531,-0.125,-0.074219,9.874276,,,
12520754000,0.999268,-0.012329,0.0354,0.000488,0.28125,0.066406,0.042969,9.888056,,,
12536869000,0.999268,-0.012451,0.035339,0.000244,-0.371094,-0.316406,0.078125,9.904171,4.4,5.15,2.4
12557087000,0.999329,-0.012695,0.035156,0.000244,0.511719,-0.117188,-0.074219,9.924389,,,
12577271000,0.999329,-0.013245,0.03479,0.000244,0.433594,-0.1875,0.042969,9.944573,,,
12606231000,0.999329,-0.013672,0.03418,0.000244,-0.125,0.058594,0.84375,9.973533,,,
12616324000,0.999329,-0.013916,0.034058,0.000244,0.179688,0.328125,-0.570312,9.983626,,,
12637116000,0.999329,-0.014099,0.033569,0.000183,-0.140625,-0.007812,-0.265625,10.004418,,,
12656816000,0.999329,-0.014404,0.033264,0.000244,-0.148438,-0.046875,-0.035156,10.024118,,,
12676696000,0.999329,-0.014648,0.032898,0.000244,-0.113281,0.027344,-0.035156,10.043998,,,
12697193000,0.999329,-0.015015,0.032532,0.000366,0.109375,-0.230469,0.1875,10.064495,,,
12716683000,0.99939,-0.015198,0.032104,0.000366,-0.042969,0.121094,-0.351562,10.083985,,,
12736480000,0.99939,-0.015503,0.031677,0.000488,-0.105469,0.167969,0.300781,10.103782,,,
12756734000,0.99939,-0.015808,0.03125,0.000549,0.085938,-0.023438,-0.082031,10.124036,4.37,5.16,2.46
12777457000,0.99939,-0.016052,0.030884,0.000549,-0.113281,0.058594,-0.121094,10.144759,,,
12806131000,0.99939,-0.016235,0.030396,0.00061,-0.28125,0.105469,0.226562,10.173433,,,
12825268000,0.99939,-0.016418,0.030029,0.000671,-0.058594,0.105469,0.300781,10.19257,,,
12835431000,0.999451,-0.016235,0.029724,0.00061,0.011719,0.144531,-0.121094,10.202733,,,
12856803000,0.999451,-0.016418,0.029419,0.000671,0.164062,-0.160156,-0.273438,10.224105,,,
12876935000,0.999451,-0.016418,0.02887,0.00061,-0.152344,0.257812,-0.617188,10.244237,,,
12905509000,0.999451,-0.016846,0.028259,0.000671,-0.050781,-0.007812,0.070312,10.272811,,,
12915431000,0.999451,-0.016785,0.028137,0.000671,-0.128906,0.113281,0.261719,10.282733,,,
12937162000,0.999451,-0.016846,0.027649,0.000732,-0.066406,0.113281,-0.160156,10.304464,,,
12965996000,0.999512,-0.016907,0.027039,0.000977,-0.113281,0.191406,-0.195312,10.333298,4.45,5.15,2.51
12985380000,0.999512,-0.017029,0.026489,0.001404,-0.582031,0.039062,-0.273438,10.352682,,,
12995385000,0.999512,-0.017029,0.026184,0.001648,-0.78125,-0.078125,0.378906,10.362687,,,
13016625000,0.999512,-0.01709,0.025574,0.002258,-0.820312,0.113281,-0.425781,10.383927,,,
13037454000,0.999512,-0.017578,0.025146,0.002747,-0.40625,-0.5,-0.734375,10.404756,,,
13064985000,0.999512,-0.017456,0.024963,0.002686,-0.566406,0.046875,0.109375,10.432287,,,
13075297000,0.999512,-0.017456,0.024963,0.002686,-0.535156,0.007812,-0.003906,10.442599,,,
13106638000,0.999512,-0.017456,0.024963,0.002686,-0.421875,0.046875,-0.042969,10.47394,,,
13124642000,0.999512,-0.017456,0.024963,0.002686,-0.105469,0.007812,-0.003906,10.491944,,,
13135190000,0.999512,-0.017456,0.024963,0.002686,-0.105469,0.007812,0.035156,10.502492,,,
13164553000,0.999512,-0.017517,0.024963,0.002686,-0.066406,0.007812,0.035156,10.531855,4.42,5.14,2.46
13184814000,0.999512,-0.017578,0.024963,0.002686,-0.066406,0.007812,0.035156,10.552116,,,
13206501000,0.999512,-0.017578,0.024902,0.002686,-0.105469,0.046875,-0.003906,10.573803,,,
13215318000,0.999512,-0.017517,0.024902,0.002686,-0.105469,0.007812,0.035156,10.58262,,,
13244089000,0.999512,-0.017578,0.024902,0.002686,-0.105469,0.007812,-0.003906,10.611391,,,
13269814000,0.999512,-0.017578,0.024902,0.002686,-0.066406,0.007812,0.035156,10.637116,,,
13284404000,0.999512,-0.017578,0.024902,0.002686,-0.097656,0.007812,0.035156,10.651706,,,
13304525000,0.999512,-0.017578,0.024902,0.002686,-0.097656,0.007812,-0.003906,10.671827,,,
13324201000,0.999512,-0.017578,0.024902,0.002686,-0.058594,0.007812,0.035156,10.691503,,,
13348036000,0.999512,-0.017517,0.024902,0.002686,-0.097656,0.007812,0.035156,10.715338,4.46,5.16,2.49
13364099000,0.999512,-0.017517,0.024902,0.002686,-0.097656,0.007812,0.035156,10.731401,,,
13383702000,0.999512,-0.017456,0.024902,0.002686,-0.058594,0.046875,-0.003906,10.751004,,,
13404510000,0.999512,-0.017456,0.024902,0.002686,-0.097656,0.007812,0.035156,10.771812,,,
13423717000,0.999512,-0.017456,0.024902,0.002686,-0.058594,0.007812,0.035156,10.791019,,,
13444210000,0.999512,-0.017456,0.024902,0.002686,-0.089844,0.046875,-0.003906,10.811512,,,
13469694000,0.999512,-0.017456,0.024902,0.002686,-0.011719,-0.007812,0.019531,10.836996,,,
13484349000,0.999512,-0.017456,0.024902,0.002686,-0.011719,0.03125,-0.019531,10.851651,,,
13503903000,0.999512,-0.017395,0.024902,0.002686,-0.011719,-0.007812,0.019531,10.871205,,,
13524127000,0.999512,-0.017456,0.024902,0.002686,-0.011719,-0.007812,0.019531,10.891429,,,
13545925000,0.999512,-0.017456,0.024902,0.002686,-0.011719,-0.007812,-0.019531,10.913227,4.44,5.2,2.47
13565105000,0.999512,-0.017456,0.024963,0.002686,0.027344,-0.007812,0.019531,10.932407,,,
13583447000,0.999512,-0.017456,0.024963,0.002686,-0.011719,-0.007812,-0.019531,10.950749,,,
13608308000,0.999512,-0.017456,0.024963,0.002686,-0.011719,-0.007812,-0.019531,10.97561,,,
13623655000,0.999512,-0.017456,0.024963,0.002686,-0.011719,-0.007812,0.019531,10.990957,,,
13643876000,0.999512,-0.017456,0.024902,0.002747,-0.011719,-0.007812,-0.019531,11.011178,,,
13671767000,0.999512,-0.017456,0.024963,0.002747,-0.011719,-0.007812,-0.019531,11.039069,,,
13683183000,0.999512,-0.017456,0.024902,0.002747,-0.011719,-0.007812,0.019531,11.050485,,,
13706330000,0.999512,-0.017517,0.024902,0.002686,0.027344,0.03125,-0.019531,11.073632,,,
13722991000,0.999512,-0.017517,0.024902,0.002686,-0.011719,-0.007812,0.019531,11.090293,,,
13743106000,0.999512,-0.017517,0.024902,0.002686,-0.011719,-0.007812,0.019531,11.110408,4.41,5.16,2.47
13771391000,0.999512,-0.017517,0.024902,0.002686,-0.011719,-0.007812,0.019531,11.138693,,,
13783150000,0.999512,-0.017456,0.024902,0.002686,-0.011719,-0.007812,-0.019531,11.150452,,,
13802691000,0.999512,-0.017395,0.024902,0.002686,-0.011719,-0.007812,-0.019531,11.169993,,,
13824220000,0.999512,-0.017395,0.024963,0.002686,-0.011719,-0.007812,-0.019531,11.191522,,,
13842612000,0.999512,-0.017456,0.024902,0.002686,-0.011719,-0.007812,0.019531,11.209914,,,
13863328000,0.999512,-0.017456,0.024902,0.002686,0.027344,0.03125,-0.019531,11.23063,,,
13882825000,0.999512,-0.017456,0.024902,0.002747,-0.011719,-0.007812,-0.011719,11.250127,,,
13907111000,0.999512,-0.017456,0.024902,0.002686,-0.011719,-0.007812,0.027344,11.274413,,,
13922765000,0.999512,-0.017456,0.024902,0.002747,-0.011719,-0.007812,0.019531,11.290067,,,
13942976000,0.999512,-0.017517,0.024902,0.002747,0.027344,-0.007812,-0.058594,11.310278,4.44,5.13,2.46
13962486000,0.999512,-0.017517,0.024902,0.002686,-0.003906,-0.007812,0.019531,11.329788,,,
13983229000,0.999512,-0.017517,0.024902,0.002747,-0.003906,-0.007812,-0.019531,11.350531,,,
14006702000,0.999512,-0.017517,0.024902,0.002747,-0.003906,0.03125,-0.019531,11.374004,,,
14022083000,0.999512,-0.017517,0.024902,0.002747,-0.003906,-0.007812,0.019531,11.389385,,,
14042045000,0.999512,-0.017456,0.024902,0.002747,-0.003906,-0.007812,0.019531,11.409347,,,
14072185000,0.999512,-0.017456,0.024902,0.002808,-0.003906,-0.007812,-0.019531,11.439487,,,
14089281000,0.999512,-0.017456,0.024902,0.002808,-0.003906,-0.007812,-0.019531,11.456583,,,
14101978000,0.999512,-0.017456,0.024902,0.002808,-0.003906,-0.007812,-0.019531,11.46928,,,
14122362000,0.999512,-0.017456,0.024902,0.002808,0.035156,-0.007812,-0.019531,11.489664,,,
14146198000,0.999512,-0.017456,0.024902,0.002808,0.035156,-0.007812,0.027344,11.5135,4.42,5.16,2.44
14162231000,0.999512,-0.017517,0.024902,0.002808,0.035156,-0.007812,0.027344,11.529533,,,
14182358000,0.999512,-0.017517,0.024841,0.002747,-0.003906,-0.007812,0.019531,11.54966,,,
14202516000,0.999512,-0.017517,0.024841,0.002747,-0.003906,0.03125,-0.019531,11.569818,,,
14226821000,0.999512,-0.017517,0.024841,0.002747,0.035156,-0.007812,-0.019531,11.594123,,,
14242281000,0.999512,-0.017517,0.024841,0.002808,0.035156,0.03125,-0.019531,11.609583,,,
14262223000,0.999512,-0.017517,0.024902,0.002808,-0.003906,-0.007812,-0.019531,11.629525,,,
14286469000,0.999512,-0.017517,0.024902,0.002808,-0.003906,-0.007812,0.019531,11.653771,,,
14301908000,0.999512,-0.017517,0.024902,0.002808,-0.003906,-0.007812,-0.019531,11.66921,,,
14321174000,0.999512,-0.017578,0.024902,0.002808,-0.003906,-0.007812,-0.019531,11.688476,,,
14342000000,0.999512,-0.017578,0.024841,0.002808,-0.003906,-0.007812,0.019531,11.709302,4.43,5.13,2.49
14361216000,0.999512,-0.017578,0.024841,0.002808,-0.003906,-0.007812,0.019531,11.728518,,,
14383828000,0.999512,-0.017578,0.024841,0.002808,-0.003906,-0.007812,-0.019531,11.75113,,,
14401124000,0.999512,-0.017578,0.024841,0.002808,-0.003906,0.03125,-0.011719,11.768426,,,
14424128000,0.999512,-0.017578,0.024841,0.002808,0.035156,-0.007812,0.027344,11.79143,,,
14443059000,0.999512,-0.017578,0.024841,0.002808,-0.003906,-0.007812,0.027344,11.810361,,,
14464842000,0.999512,-0.017578,0.024841,0.002808,0.035156,-0.007812,0.027344,11.832144,,,
14480750000,0.999512,-0.017578,0.024841,0.002808,-0.003906,-0.007812,0.027344,11.848052,,,
14501375000,0.999512,-0.017578,0.024841,0.002808,0.035156,-0.007812,-0.019531,11.868677,,,
14521792000,0.999512,-0.017578,0.024841,0.002808,-0.003906,-0.007812,-0.019531,11.889094,,,
14540986000,0.999512,-0.017578,0.024841,0.002808,-0.003906,-0.007812,-0.019531,11.908288,,,
14560587000,0.999512,-0.017578,0.024841,0.002808,-0.003906,-0.007812,-0.011719,11.927889,4.48,5.16,2.47
14590810000,0.999512,-0.017578,0.024841,0.002808,-0.003906,0.03125,-0.011719,11.958112,,,
14605841000,0.999512,-0.017578,0.024841,0.002808,-0.003906,-0.007812,-0.011719,11.973143,,,
14620246000,0.999512,-0.017578,0.024841,0.002808,-0.003906,-0.007812,-0.011719,11.987548,,,
14640716000,0.999512,-0.017578,0.024841,0.002808,0.035156,-0.007812,0.027344,12.008018,,,
14670406000,0.999512,-0.017578,0.024841,0.002808,0.035156,-0.007812,-0.011719,12.037708,,,
14686014000,0.999512,-0.017578,0.024841,0.002808,-0.003906,-0.007812,-0.011719,12.053316,,,
14701418000,0.999512,-0.017578,0.024841,0.002808,0.035156,-0.007812,-0.011719,12.06872,,,
14721325000,0.999512,-0.017578,0.024841,0.002808,-0.003906,0.03125,0.027344,12.088627,,,
14743685000,0.999512,-0.017578,0.024841,0.002808,0.035156,-0.007812,-0.011719,12.110987,4.42,5.16,2.52
14760640000,0.999512,-0.017578,0.024841,0.002808,-0.003906,-0.007812,0.027344,12.127942,,,
14780072000,0.999512,-0.017578,0.024841,0.002808,0.035156,-0.007812,-0.011719,12.147374,,,
14809818000,0.999512,-0.017578,0.024841,0.002808,-0.011719,-0.007812,0.027344,12.17712,,,
14819871000,0.999512,-0.017578,0.024841,0.002808,-0.011719,-0.007812,0.027344,12.187173,,,
14840271000,0.999512,-0.017578,0.024841,0.002808,0.027344,-0.007812,0.019531,12.207573,,,
14860119000,0.999512,-0.017578,0.024841,0.002808,-0.011719,-0.007812,-0.019531,12.227421,,,
14884917000,0.999512,-0.017578,0.024841,0.002808,-0.011719,-0.007812,-0.019531,12.252219,,,
14900014000,0.999512,-0.017578,0.024841,0.002808,-0.011719,-0.007812,0.019531,12.267316,,,
14919855000,0.999512,-0.017578,0.024841,0.002808,0.027344,-0.007812,-0.019531,12.287157,,,
14939555000,0.999512,-0.017578,0.024841,0.002808,-0.011719,0.03125,-0.019531,12.306857,,,
14969588000,0.999512,-0.017578,0.024841,0.002808,-0.011719,-0.007812,0.019531,12.33689,4.45,5.16,2.47
14979900000,0.999512,-0.017578,0.024841,0.002808,0.027344,-0.007812,-0.019531,12.347202,,,
14999934000,0.999512,-0.017578,0.024841,0.002808,0.027344,-0.007812,0.019531,12.367236,,,
15020191000,0.999512,-0.017578,0.024841,0.002808,-0.011719,-0.007812,-0.019531,12.387493,,,
15049203000,0.999512,-0.017578,0.024841,0.002808,0.027344,0.03125,0.019531,12.416505,,,
15059608000,0.999512,-0.017578,0.024841,0.002808,0.027344,-0.007812,0.019531,12.42691,,,
15079554000,0.999512,-0.017578,0.024841,0.002808,0.027344,0.03125,-0.019531,12.446856,,,
15107172000,0.999512,-0.017578,0.024841,0.002808,-0.011719,-0.007812,-0.019531,12.474474,,,
15119230000,0.999512,-0.017578,0.024841,0.002808,-0.011719,0.03125,-0.019531,12.486532,,,
15139340000,0.999512,-0.017578,0.024841,0.002808,0.027344,-0.007812,-0.019531,12.506642,,,
15159443000,0.999512,-0.017578,0.024841,0.002808,0.027344,0.03125,-0.019531,12.526745,4.43,5.15,2.51
15179297000,0.999512,-0.017578,0.024841,0.002808,-0.011719,-0.007812,-0.019531,12.546599,,,
15198784000,0.999512,-0.017578,0.024841,0.002808,0.027344,-0.007812,0.019531,12.566086,,,
15220310000,0.999512,-0.017578,0.024841,0.002808,-0.011719,-0.007812,0.019531,12.587612,,,
15248885000,0.999512,-0.017578,0.024841,0.002808,0.027344,-0.007812,0.019531,12.616187,,,
15259082000,0.999512,-0.017578,0.024841,0.002808,0.027344,0.03125,-0.019531,12.626384,,,
15278603000,0.999512,-0.017578,0.024841,0.002808,0.0625,-0.007812,-0.019531,12.645905,,,
15299525000,0.999512,-0.017578,0.02478,0.002869,1.847656,-0.007812,0.027344,12.666827,,,
15323727000,0.999512,-0.017578,0.024536,0.002869,1.367188,0.183594,0.0625,12.691029,,,
15338621000,0.999573,-0.017456,0.02417,0.002869,0.546875,-0.007812,-0.128906,12.705923,,,
15358668000,0.999573,-0.017395,0.023804,0.002808,0.183594,0.03125,-0.167969,12.72597,4.46,5.15,2.5
15378770000,0.999573,-0.017273,0.023254,0.002808,0.582031,0.03125,-0.128906,12.746072,,,
15408100000,0.999634,-0.01709,0.022034,0.002747,0.328125,-0.007812,-0.136719,12.775402,,,
15418762000,0.999634,-0.017212,0.020996,0.002686,0.503906,0.03125,-0.441406,12.786064,,,
15438932000,0.999695,-0.018066,0.015442,0.002625,0.832031,0.230469,-1.667969,12.806234,,,
15465329000,0.999878,-0.010498,0.01001,0.003113,-1.820312,-1.949219,20.242188,12.832631,,,
15478633000,0.999756,-0.018555,0.012817,0.002502,0.960938,2.234375,1.648438,12.845935,,,
15498254000,0.999817,-0.016479,0.010925,0.002747,1.230469,-0.898438,-6.234375,12.865556,,,
15523348000,0.999756,-0.017822,0.012268,0.002441,0.332031,0.972656,-0.566406,12.89065,,,
15538134000,0.999756,-0.017151,0.01178,0.002258,-0.664062,0.441406,1.464844,12.905436,,,
15558725000,0.999817,-0.016724,0.011475,0.002136,-0.863281,0.558594,-0.152344,12.926027,4.47,5.17,2.54
15578819000,0.999756,-0.017029,0.011597,0.002075,-0.75,-0.023438,-0.035156,12.946121,,,
15607781000,0.999756,-0.017029,0.011597,0.002441,-0.566406,-0.0625,-0.074219,12.975083,,,
15618176000,0.999817,-0.016846,0.011475,0.002258,-0.792969,-0.023438,0.078125,12.985478,,,
15637814000,0.999756,-0.017029,0.011536,0.001953,-1.023438,-0.023438,0.078125,13.005116,,,
15659130000,0.999817,-0.016846,0.011475,0.001831,-0.871094,0.015625,-0.199219,13.026432,,,
15683748000,0.999817,-0.016907,0.011414,0.001892,-1.140625,0.050781,0.148438,13.05105,,,
15698234000,0.999817,-0.016724,0.011414,0.002136,-0.792969,-0.023438,0.03125,13.065536,,,
15727748000,0.999817,-0.016724,0.011475,0.002319,-0.601562,-0.140625,0.070312,13.09505,,,
15748073000,0.999817,-0.016724,0.011414,0.002258,-0.378906,-0.0625,0.03125,13.115375,4.48,5.22,2.72
15757881000,0.999817,-0.016724,0.011414,0.002319,-0.265625,0.015625,0.070312,13.125183,,,
15778217000,0.999817,-0.016602,0.011414,0.002319,-0.304688,-0.101562,-0.089844,13.145519,,,
15797763000,0.999817,-0.016602,0.011414,0.002319,-0.609375,-0.070312,0.023438,13.165065,,,
15828005000,0.999817,-0.016602,0.011414,0.002319,-0.800781,-0.03125,-0.050781,13.195307,,,
15837407000,0.999817,-0.016541,0.011414,0.002319,-0.074219,-0.03125,-0.011719,13.204709,,,
15857828000,0.999817,-0.016541,0.011353,0.002319,-0.113281,-0.03125,-0.011719,13.22513,,,
15887100000,0.999817,-0.016479,0.011353,0.002258,-0.121094,0.007812,-0.011719,13.254402,,,
15897182000,0.999817,-0.016479,0.011353,0.002258,-0.121094,-0.03125,-0.011719,13.264484,,,
15920821000,0.999817,-0.016479,0.011353,0.002258,-0.121094,0.007812,-0.011719,13.288123,,,
15946569000,0.999817,-0.016479,0.011353,0.002258,-0.121094,-0.03125,-0.019531,13.313871,4.47,5.2,2.73
15956956000,0.999817,-0.016479,0.011353,0.002258,-0.121094,-0.03125,-0.019531,13.324258,,,
15977347000,0.999817,-0.016479,0.011353,0.002258,-0.121094,-0.03125,-0.019531,13.344649,,,
15997643000,0.999817,-0.016479,0.011353,0.002258,-0.113281,-0.03125,-0.019531,13.364945,,,
16027019000,0.999817,-0.016479,0.011353,0.002258,-0.113281,-0.03125,-0.058594,13.394321,,,
16037466000,0.999817,-0.016479,0.011292,0.002258,-0.113281,-0.03125,-0.058594,13.404768,,,
16057507000,0.999817,-0.016479,0.011292,0.002258,-0.074219,-0.03125,-0.019531,13.424809,,,
16077414000,0.999817,-0.016479,0.011292,0.002258,-0.113281,-0.03125,-0.019531,13.444716,,,
16097441000,0.999817,-0.016479,0.011292,0.002258,-0.113281,-0.03125,-0.019531,13.464743,,,
16125612000,0.999817,-0.016541,0.011292,0.002258,-0.113281,-0.03125,-0.058594,13.492914,,,
16136171000,0.999817,-0.016541,0.011292,0.002258,-0.113281,0.007812,-0.058594,13.503473,,,
16156994000,0.999817,-0.016541,0.011292,0.002258,-0.074219,-0.03125,-0.058594,13.524296,4.47,5.19,2.69
16182819000,0.999817,-0.016541,0.011292,0.002258,-0.113281,0.007812,-0.019531,13.550121,,,
16197434000,0.999817,-0.016541,0.011292,0.002258,-0.011719,0.03125,0.011719,13.564736,,,
16217244000,0.999817,-0.016541,0.011292,0.002258,-0.011719,-0.007812,-0.027344,13.584546,,,
16236979000,0.999817,-0.016541,0.011292,0.002258,-0.011719,0.03125,0.011719,13.604281,,,
16257080000,0.999817,-0.016541,0.011292,0.002258,-0.011719,-0.007812,0.011719,13.624382,,,
16285970000,0.999817,-0.016541,0.011292,0.002258,-0.011719,0.03125,0.011719,13.653272,,,
16296723000,0.999817,-0.016541,0.011292,0.002258,-0.011719,0.03125,0.011719,13.664025,,,
16317048000,0.999817,-0.016541,0.011292,0.002258,-0.011719,-0.007812,0.011719,13.68435,,,
16337467000,0.999817,-0.016541,0.011292,0.002258,-0.011719,0.03125,-0.027344,13.704769,,,
16363396000,0.999817,-0.016541,0.011353,0.002258,-0.011719,0.023438,0.011719,13.730698,4.47,5.21,2.74
16376605000,0.999817,-0.016541,0.011353,0.002258,-0.050781,-0.015625,0.011719,13.743907,,,
16397179000,0.999817,-0.016541,0.011353,0.002258,-0.011719,-0.015625,0.011719,13.764481,,,
16416736000,0.999817,-0.016541,0.011353,0.002258,-0.011719,-0.015625,-0.027344,13.784038,,,
16436652000,0.999817,-0.016541,0.011353,0.002258,-0.011719,0.023438,0.011719,13.803954,,,
16465371000,0.999817,-0.016602,0.011353,0.002258,-0.003906,0.023438,0.011719,13.832673,,,
16475775000,0.999817,-0.016541,0.011353,0.002258,-0.003906,0.023438,0.011719,13.843077,,,
16497014000,0.999817,-0.016541,0.011353,0.002319,-0.003906,0.023438,-0.027344,13.864316,,,
16516682000,0.999817,-0.016541,0.011353,0.002258,-0.003906,-0.015625,0.011719,13.883984,,,
16545427000,0.999817,-0.016541,0.011353,0.002258,-0.003906,-0.015625,0.046875,13.912729,4.47,5.18,2.74
16555273000,0.999817,-0.016541,0.011353,0.002258,-0.003906,0.023438,0.011719,13.922575,,,
16577520000,0.999817,-0.016541,0.011353,0.002258,-0.003906,0.023438,0.011719,13.944822,,,
16602103000,0.999817,-0.016479,0.011353,0.002258,0.035156,0.023438,0.011719,13.969405,,,
16616279000,0.999817,-0.016479,0.011353,0.002258,-0.003906,-0.023438,0.011719,13.983581,,,
16645181000,0.999817,-0.016479,0.011353,0.002258,-0.003906,0.015625,0.011719,14.012483,,,
16655283000,0.999817,-0.016541,0.011353,0.002258,-0.003906,-0.023438,-0.027344,14.022585,,,
16676670000,0.999817,-0.016541,0.011353,0.002258,-0.003906,-0.015625,0.011719,14.043972,,,
16696612000,0.999817,-0.016541,0.011414,0.002258,-0.003906,0.023438,0.011719,14.063914,,,
16724959000,0.999817,-0.016541,0.011353,0.002258,-0.003906,-0.015625,0.003906,14.092261,,,
16742167000,0.999817,-0.016541,0.011353,0.002258,-0.003906,0.023438,0.003906,14.109469,,,
16756208000,0.999817,-0.016541,0.011353,0.002258,-0.003906,0.023438,0.003906,14.12351,4.47,5.19,2.74
16784584000,0.999817,-0.016541,0.011353,0.002258,-0.042969,0.015625,-0.035156,14.151886,,,
16805195000,0.999817,-0.016541,0.011353,0.002197,-0.003906,0.015625,0.003906,14.172497,,,
16815270000,0.999817,-0.016541,0.011353,0.002197,-0.003906,0.015625,0.003906,14.182572,,,
16837125000,0.999817,-0.016541,0.011353,0.002197,-0.003906,0.015625,0.003906,14.204427,,,
16864896000,0.999817,-0.016541,0.011353,0.002197,-0.003906,-0.023438,0.003906,14.232198,,,
16885005000,0.999817,-0.016541,0.011353,0.002258,-0.003906,-0.023438,0.003906,14.252307,,,
16900635000,0.999817,-0.016541,0.011353,0.002258,-0.003906,-0.023438,-0.035156,14.267937,,,
16928170000,0.999817,-0.016541,0.011414,0.002258,-0.003906,-0.023438,0.011719,14.295472,,,
16935217000,0.999817,-0.016541,0.011414,0.002258,-0.003906,0.015625,0.011719,14.302519,,,
16964186000,0.999817,-0.016541,0.011414,0.002258,0.003906,-0.023438,0.011719,14.331488,4.48,5.2,2.73
16975308000,0.999817,-0.016541,0.011414,0.002197,0.003906,0.015625,-0.027344,14.34261,,,
17004819000,0.999817,-0.016479,0.011414,0.002258,-0.035156,0.023438,0.011719,14.372121,,,
17024166000,0.999817,-0.016479,0.011414,0.002197,0.003906,0.023438,0.011719,14.391468,,,
17048354000,0.999817,-0.016479,0.011414,0.002197,0.003906,-0.015625,0.011719,14.415656,,,
17055299000,0.999817,-0.016479,0.011414,0.002197,0.003906,0.023438,0.011719,14.422601,,,
17084933000,0.999817,-0.016479,0.011414,0.002197,0.003906,-0.015625,0.011719,14.452235,,,
17103582000,0.999817,-0.016479,0.011414,0.002197,0.003906,-0.015625,0.046875,14.470884,,,
17123363000,0.999817,-0.016479,0.011414,0.002197,0.003906,-0.015625,0.011719,14.490665,,,
17135175000,0.999817,-0.016479,0.011414,0.002197,0.003906,-0.015625,-0.027344,14.502477,,,
17163688000,0.999817,-0.016479,0.011414,0.002197,0.003906,0.023438,0.011719,14.53099,4.45,5.19,2.73
17183537000,0.999817,-0.016479,0.011414,0.002197,0.003906,0.023438,-0.027344,14.550839,,,
17203986000,0.999817,-0.016479,0.011414,0.002197,0.003906,-0.015625,0.011719,14.571288,,,
17223698000,0.999817,-0.016479,0.011414,0.002197,0.003906,0.023438,-0.027344,14.591,,,
17243798000,0.999817,-0.016479,0.011414,0.002197,0.003906,-0.015625,0.011719,14.6111,,,
17267914000,0.999817,-0.016479,0.011414,0.002197,-0.035156,0.023438,-0.027344,14.635216,,,
17283878000,0.999817,-0.016479,0.011414,0.002197,0.003906,-0.015625,-0.027344,14.65118,,,
17303099000,0.999817,-0.016479,0.011414,0.002197,-0.035156,-0.015625,-0.027344,14.670401,,,
17323807000,0.999817,-0.016479,0.011414,0.002197,0.003906,-0.015625,0.011719,14.691109,,,
17349397000,0.999817,-0.016479,0.011414,0.002197,0.003906,0.023438,0.011719,14.716699,4.48,5.18,2.71
17363308000,0.999817,-0.016479,0.011414,0.002197,0.003906,0.015625,0.011719,14.73061,,,
17383186000,0.999817,-0.016479,0.011414,0.002197,0.042969,-0.023438,0.011719,14.750488,,,
17406881000,0.999817,-0.016479,0.011414,0.002197,-0.003906,-0.023438,0.011719,14.774183,,,
17422577000,0.999817,-0.016479,0.011414,0.002197,-0.003906,-0.015625,0.011719,14.789879,,,
17442615000,0.999817,-0.016479,0.011414,0.002197,-0.003906,-0.015625,0.011719,14.809917,,,
17464380000,0.999817,-0.016479,0.011414,0.002197,-0.003906,0.023438,-0.027344,14.831682,,,
17489817000,0.999817,-0.016479,0.011414,0.002197,-0.003906,0.023438,0.011719,14.857119,,,
17503268000,0.999817,-0.016479,0.011414,0.002197,-0.003906,-0.015625,0.011719,14.87057,,,
17522735000,0.999817,-0.016479,0.011414,0.002197,-0.003906,-0.015625,0.011719,14.890037,,,
17542802000,0.999817,-0.016479,0.011414,0.002197,-0.003906,0.023438,0.011719,14.910104,,,
17568229000,0.999817,-0.016479,0.011414,0.002197,-0.003906,-0.015625,0.011719,14.935531,4.47,5.2,2.72
17582460000,0.999817,-0.016479,0.011414,0.002197,-0.003906,0.023438,0.011719,14.949762,,,
17604053000,0.999817,-0.016479,0.011414,0.002197,-0.003906,-0.015625,-0.027344,14.971355,,,
17622657000,0.999817,-0.016479,0.011414,0.002197,-0.003906,-0.015625,0.011719,14.989959,,,
17646540000,0.999817,-0.016479,0.011414,0.002197,-0.003906,0.023438,0.011719,15.013842,,,
17662481000,0.999817,-0.016479,0.011414,0.002197,-0.042969,0.023438,0.011719,15.029783,,,
17681987000,0.999817,-0.016479,0.011414,0.002197,-0.003906,0.023438,0.011719,15.049289,,,
17701984000,0.999817,-0.016479,0.011414,0.002197,-0.003906,-0.015625,0.011719,15.069286,,,
17726222000,0.999817,-0.016479,0.011414,0.002197,-0.003906,0.023438,0.011719,15.093524,,,
17747004000,0.999817,-0.016479,0.011414,0.002197,-0.003906,-0.023438,0.011719,15.114306,,,
17764078000,0.999817,-0.016479,0.011414,0.002197,0.035156,-0.023438,0.011719,15.13138,4.47,5.2,2.68
17781935000,0.999817,-0.016479,0.011414,0.002197,-0.003906,-0.023438,0.011719,15.149237,,,
17802520000,0.999817,-0.016479,0.011414,0.002197,-0.003906,-0.023438,0.011719,15.169822,,,
17822945000,0.999817,-0.016479,0.011414,0.002197,-0.003906,-0.023438,-0.027344,15.190247,,,
17841903000,0.999817,-0.016479,0.011414,0.002197,0.035156,-0.015625,0.046875,15.209205,,,
17864639000,0.999817,-0.016479,0.011414,0.002197,-0.003906,0.023438,0.046875,15.231941,,,
17887216000,0.999817,-0.016479,0.011414,0.002197,-0.003906,-0.015625,-0.027344,15.254518,,,
17901432000,0.999817,-0.016479,0.011414,0.002197,-0.003906,0.023438,0.011719,15.268734,,,
17924898000,0.999817,-0.016479,0.011414,0.002197,-0.003906,-0.015625,0.011719,15.2922,,,
17941531000,0.999817,-0.016479,0.011414,0.002197,-0.003906,-0.015625,0.011719,15.308833,,,
17961296000,0.999817,-0.016479,0.011414,0.002197,-0.003906,0.023438,-0.027344,15.328598,4.5,5.19,2.69
17992043000,0.999817,-0.016479,0.011414,0.002197,-0.003906,-0.015625,0.011719,15.359345,,,
18001243000,0.999817,-0.016479,0.011414,0.002197,-0.003906,0.023438,0.011719,15.368545,,,
18021196000,0.999817,-0.016479,0.011414,0.002197,-0.003906,0.023438,0.011719,15.388498,,,
18041088000,0.999817,-0.016479,0.011414,0.002197,-0.003906,-0.015625,0.011719,15.40839,,,
18062296000,0.999817,-0.016479,0.011414,0.002197,-0.003906,0.023438,0.046875,15.429598,,,
18085148000,0.999817,-0.016479,0.011414,0.002197,-0.003906,0.023438,0.011719,15.45245,,,
18101131000,0.999817,-0.016479,0.011414,0.002197,-0.003906,0.015625,0.011719,15.468433,,,
18123383000,0.999817,-0.016479,0.011414,0.002197,-0.003906,-0.023438,0.011719,15.490685,,,
18144613000,0.999817,-0.016479,0.011414,0.002197,-0.003906,-0.023438,0.011719,15.511915,,,
18161064000,0.999817,-0.016479,0.011414,0.002197,-0.003906,0.015625,-0.027344,15.528366,4.49,5.2,2.75
18181448000,0.999817,-0.016479,0.011414,0.002197,0.035156,0.015625,-0.027344,15.54875,,,
18210832000,0.999817,-0.016479,0.011414,0.002197,-0.042969,0.015625,-0.027344,15.578134,,,
18221106000,0.999817,-0.016479,0.011414,0.002197,-0.003906,-0.023438,0.011719,15.588408,,,
18251018000,0.999817,-0.016479,0.011414,0.002197,-0.003906,-0.023438,0.019531,15.61832,,,
18267177000,0.999817,-0.016479,0.011414,0.002197,-0.003906,0.015625,0.019531,15.634479,,,
18280053000,0.999817,-0.016479,0.011414,0.002197,-0.003906,-0.023438,-0.019531,15.647355,,,
18302429000,0.999817,-0.016479,0.011414,0.002197,-0.003906,-0.023438,0.019531,15.669731,,,
18320551000,0.999817,-0.016479,0.011414,0.002197,-0.003906,0.015625,0.019531,15.687853,,,
18340355000,0.999817,-0.016479,0.011414,0.002197,-0.003906,0.015625,0.019531,15.707657,,,
18360778000,0.999817,-0.016479,0.011414,0.002197,-0.003906,-0.023438,0.011719,15.72808,4.47,5.2,2.73
18390588000,0.999817,-0.016479,0.011414,0.002197,-0.003906,0.015625,0.011719,15.75789,,,
18399992000,0.999817,-0.016479,0.011414,0.002197,-0.003906,0.015625,-0.027344,15.767294,,,
18422008000,0.999817,-0.016479,0.011414,0.002197,-0.003906,0.015625,0.011719,15.78931,,,
18446289000,0.999817,-0.016479,0.011414,0.002197,-0.003906,0.015625,-0.027344,15.813591,,,
18460285000,0.999817,-0.016479,0.011414,0.002197,-0.042969,-0.023438,0.011719,15.827587,,,
18490842000,0.999817,-0.016479,0.011414,0.002197,-0.003906,-0.023438,-0.027344,15.858144,,,
18504023000,0.999817,-0.016479,0.011414,0.002197,-0.003906,-0.023438,0.011719,15.871325,,,
18520234000,0.999817,-0.016479,0.011414,0.002197,0.035156,0.015625,0.046875,15.887536,,,
18539931000,0.999817,-0.016479,0.011475,0.002197,-0.003906,-0.023438,0.011719,15.907233,,,
18559944000,0.999817,-0.016357,0.011353,0.002319,1.675781,0.015625,-0.027344,15.927246,4.49,5.24,2.72
18585376000,0.999817,-0.016663,0.011536,0.002014,2.449219,-0.023438,0.046875,15.952678,,,
18599740000,0.999817,-0.016479,0.011475,0.002136,-0.15625,-0.246094,-0.25,15.967042,,,
18619540000,0.999817,-0.016479,0.011536,0.002136,-0.511719,0.089844,-0.097656,15.986842,,,
18641469000,0.999817,-0.016418,0.011536,0.002136,-0.546875,0.050781,0.019531,16.008771,,,
18669630000,0.999817,-0.016541,0.011597,0.002075,0.515625,-0.175781,-0.058594,16.036932,,,
18679247000,0.999817,-0.016479,0.011597,0.002075,0.210938,0.089844,0.09375,16.046549,,,
18699284000,0.999817,-0.016479,0.011719,0.002014,0.316406,-0.023438,0.171875,16.066586,,,
18719633000,0.999817,-0.016541,0.011658,0.002014,0.234375,0.015625,-0.058594,16.086935,,,
18739969000,0.999817,-0.016724,0.011658,0.002014,0.386719,-0.101562,-0.058594,16.107271,,,
18759494000,0.999817,-0.016479,0.01178,0.002014,0.378906,-0.054688,-0.027344,16.126796,4.47,5.19,2.72
18779842000,0.999817,-0.016479,0.011719,0.001953,0.15625,0.207031,0.011719,16.147144,,,
18799043000,0.999817,-0.016418,0.011841,0.001892,0.148438,0.050781,0.085938,16.166345,,,
18825957000,0.999817,-0.016296,0.011841,0.001892,0.109375,-0.0625,-0.144531,16.193259,,,
18839012000,0.999817,-0.016357,0.011902,0.001831,-0.089844,0.050781,0.085938,16.206314,,,
18859108000,0.999817,-0.016296,0.011902,0.00177,-0.511719,0.015625,0.125,16.22641,,,
18881802000,0.999817,-0.016479,0.011963,0.001709,-0.089844,-0.0625,-0.21875,16.249104,,,
18903966000,0.999817,-0.016357,0.011963,0.00177,-0.171875,-0.175781,-0.105469,16.271268,,,
18918704000,0.999817,-0.016357,0.011963,0.001709,-0.144531,0.050781,0.011719,16.286006,,,
18938648000,0.999817,-0.016357,0.012085,0.001709,-0.136719,0.015625,0.125,16.30595,,,
18958727000,0.999817,-0.016296,0.012024,0.001709,-0.519531,-0.023438,-0.105469,16.326029,4.53,5.23,2.08
18978435000,0.999817,-0.016296,0.012024,0.001648,-0.136719,0.042969,0.011719,16.345737,,,
19000548000,0.999817,-0.016296,0.012085,0.001648,-0.105469,0.007812,-0.027344,16.36785,,,
19018389000,0.999817,-0.016296,0.012085,0.001587,-0.410156,0.015625,0.046875,16.385691,,,
19038394000,0.999817,-0.016479,0.012085,0.001587,-0.21875,-0.101562,0.164062,16.405696,,,
19059492000,0.999817,-0.016235,0.012085,0.001526,0.039062,-0.0625,0.011719,16.426794,,,
19085404000,0.999817,-0.016296,0.012085,0.001526,-0.378906,0.042969,0.011719,16.452706,,,
19098503000,0.999817,-0.016296,0.012085,0.001526,-0.34375,0.007812,0.046875,16.465805,,,
19118608000,0.999817,-0.016235,0.012146,0.001526,-0.074219,-0.070312,0.046875,16.48591,,,
19148801000,0.999817,-0.01593,0.012207,0.001465,-0.34375,-0.070312,-0.144531,16.516103,,,
19164487000,0.999817,-0.015991,0.012268,0.001404,-0.496094,0.007812,0.085938,16.531789,4.5,5.24,2.24
19178109000,0.999817,-0.01593,0.012207,0.001404,-1.230469,0.007812,0.085938,16.545411,,,
19199391000,0.999817,-0.015991,0.012329,0.001465,-1.078125,0.082031,0.277344,16.566693,,,
19219076000,0.999817,-0.016113,0.012268,0.001404,-1.15625,-0.070312,-0.144531,16.586378,,,
19248540000,0.999817,-0.016052,0.012207,0.001404,0.003906,-0.070312,0.011719,16.615842,,,
19257997000,0.999817,-0.016052,0.012207,0.001404,-0.152344,-0.03125,0.011719,16.625299,,,
19278452000,0.999817,-0.016052,0.012207,0.001404,-0.113281,0.007812,0.046875,16.645754,,,
19308086000,0.999817,-0.016052,0.012207,0.001404,-0.152344,0.007812,0.011719,16.675388,,,
19317803000,0.999817,-0.016052,0.012207,0.001404,-0.113281,-0.03125,0.011719,16.685105,,,
19338222000,0.999817,-0.016052,0.012146,0.001404,-0.152344,-0.03125,0.011719,16.705524,,,
19357563000,0.999817,-0.016113,0.012146,0.001404,-0.113281,0.007812,0.011719,16.724865,4.5,5.26,2.25
19378365000,0.999817,-0.016052,0.012146,0.001404,-0.113281,0.007812,0.011719,16.745667,,,
19397875000,0.999817,-0.016052,0.012146,0.001404,-0.144531,0.007812,-0.027344,16.765177,,,
19427813000,0.999817,-0.016052,0.012146,0.001404,-0.144531,0.007812,0.011719,16.795115,,,
19437800000,0.999817,-0.016052,0.012146,0.001404,-0.105469,0.007812,0.011719,16.805102,,,
19467437000,0.999817,-0.016052,0.012146,0.001404,-0.105469,-0.03125,0.011719,16.834739,,,
19482892000,0.999817,-0.016052,0.012146,0.001404,-0.144531,-0.03125,-0.027344,16.850194,,,
19497928000,0.999817,-0.016052,0.012146,0.001404,-0.105469,-0.03125,0.011719,16.86523,,,
19517499000,0.999817,-0.016052,0.012146,0.001404,-0.144531,-0.03125,0.011719,16.884801,,,
19538558000,0.999817,-0.016052,0.012146,0.001404,-0.144531,-0.03125,0.011719,16.90586,,,
19563163000,0.999817,-0.016052,0.012146,0.001343,-0.136719,-0.03125,0.011719,16.930465,4.52,5.26,2.27
19577829000,0.999817,-0.016052,0.012085,0.001343,-0.097656,0.007812,-0.027344,16.945131,,,
19597642000,0.999817,-0.016113,0.012085,0.001404,0.019531,0.023438,0.003906,16.964944,,,
19627124000,0.999817,-0.016113,0.012085,0.001343,0.019531,0.023438,-0.035156,16.994426,,,
19637417000,0.999817,-0.016113,0.012085,0.001404,-0.019531,0.023438,0.003906,17.004719,,,
19657332000,0.999817,-0.016113,0.012085,0.001343,-0.019531,0.023438,0.003906,17.024634,,,
19677714000,0.999817,-0.016113,0.012085,0.001404,0.019531,-0.015625,0.003906,17.045016,,,
19709033000,0.999817,-0.016113,0.012085,0.001404,-0.019531,-0.023438,-0.035156,17.076335,,,
19723777000,0.999817,-0.016113,0.012085,0.001343,0.019531,-0.015625,0.003906,17.091079,,,
19737108000,0.999817,-0.016113,0.012085,0.001404,0.019531,0.015625,-0.035156,17.10441,,,
19757750000,0.999817,-0.016113,0.012085,0.001404,-0.019531,0.015625,0.003906,17.125052,4.5,5.26,2.26
19777403000,0.999817,-0.016113,0.012085,0.001404,-0.019531,0.015625,0.003906,17.144705,,,
19807605000,0.999817,-0.016174,0.012085,0.001404,-0.019531,0.015625,-0.035156,17.174907,,,
19816776000,0.999817,-0.016174,0.012085,0.001404,0.019531,-0.023438,0.003906,17.184078,,,
19837346000,0.999817,-0.016174,0.012085,0.001404,-0.019531,-0.023438,0.011719,17.204648,,,
19866564000,0.999817,-0.016174,0.012085,0.001404,0.019531,0.015625,-0.027344,17.233866,,,
19876589000,0.999817,-0.016174,0.012085,0.001404,-0.019531,0.015625,0.011719,17.243891,,,
19897079000,0.999817,-0.016174,0.012085,0.001343,0.019531,0.015625,0.011719,17.264381,,,
19917101000,0.999817,-0.016235,0.012085,0.001343,-0.019531,0.015625,0.011719,17.284403,,,
19943177000,0.999817,-0.016235,0.012085,0.001343,0.019531,0.015625,0.011719,17.310479,,,
19956563000,0.999817,-0.016235,0.012085,0.001343,-0.019531,-0.023438,0.011719,17.323865,4.54,5.25,2.28
19977032000,0.999817,-0.016235,0.012085,0.001343,-0.019531,0.015625,0.011719,17.344334,,,
19997054000,0.999817,-0.016235,0.012085,0.001343,-0.019531,0.007812,-0.027344,17.364356,,,
20026351000,0.999817,-0.016235,0.012085,0.001343,-0.019531,0.007812,-0.027344,17.393653,,,
20036222000,0.999817,-0.016235,0.012085,0.001343,0.019531,-0.03125,0.011719,17.403524,,,
20057026000,0.999817,-0.016235,0.012085,0.001343,-0.011719,-0.03125,0.011719,17.424328,,,
20085891000,0.999817,-0.016296,0.012085,0.001343,-0.011719,-0.03125,-0.027344,17.453193,,,
20106169000,0.999817,-0.016296,0.012085,0.001343,-0.011719,0.007812,0.011719,17.473471,,,
20124646000,0.999817,-0.016296,0.012085,0.001404,-0.011719,0.007812,0.011719,17.491948,,,
20136649000,0.999817,-0.016296,0.012085,0.001404,0.027344,-0.023438,-0.027344,17.503951,,,
20156891000,0.999817,-0.016296,0.012085,0.001404,-0.011719,0.015625,0.011719,17.524193,4.48,5.21,2.28
20176618000,0.999817,-0.016296,0.012085,0.001343,-0.011719,0.015625,0.011719,17.54392,,,
20205997000,0.999817,-0.016296,0.012146,0.001404,0.027344,-0.023438,0.011719,17.573299,,,
20215815000,0.999817,-0.016296,0.012146,0.001343,0.027344,-0.023438,0.011719,17.583117,,,
20236704000,0.999817,-0.016357,0.012085,0.001343,0.027344,-0.023438,-0.027344,17.604006,,,
20265366000,0.999817,-0.016357,0.012146,0.001343,-0.011719,0.015625,0.011719,17.632668,,,
20275284000,0.999817,-0.016357,0.012085,0.001343,0.027344,0.015625,-0.027344,17.642586,,,
20296689000,0.999817,-0.016357,0.012146,0.001343,-0.011719,0.015625,-0.019531,17.663991,,,
20317204000,0.999817,-0.016357,0.012146,0.001282,-0.011719,-0.023438,0.019531,17.684506,,,
20336976000,0.999817,-0.016357,0.012146,0.001282,0.027344,-0.023438,-0.019531,17.704278,,,
20362308000,0.999817,-0.016357,0.012146,0.001282,-0.011719,-0.023438,-0.019531,17.72961,4.51,5.23,2.26
20376241000,0.999817,-0.016418,0.012146,0.001282,-0.011719,0.015625,0.019531,17.743543,,,
20396654000,0.999817,-0.016357,0.012146,0.001282,-0.011719,-0.023438,-0.019531,17.763956,,,
20416248000,0.999817,-0.016357,0.012085,0.001282,-0.011719,-0.023438,0.019531,17.78355,,,
20436706000,0.999817,-0.016357,0.012146,0.001282,-0.011719,0.015625,0.019531,17.804008,,,
20457475000,0.999817,-0.016296,0.012146,0.001282,-0.011719,-0.023438,0.019531,17.824777,,,
20484894000,0.999817,-0.016357,0.012146,0.001282,0.027344,0.015625,-0.019531,17.852196,,,
20495664000,0.999817,-0.016296,0.012146,0.001282,0.027344,-0.023438,0.019531,17.862966,,,
20527026000,0.999817,-0.016296,0.012146,0.001282,0.019531,-0.015625,0.046875,17.894328,,,
20535352000,0.999817,-0.016357,0.012146,0.001282,-0.019531,-0.015625,-0.027344,17.902654,,,
20557206000,0.999817,-0.016296,0.012146,0.001282,-0.019531,-0.015625,-0.027344,17.924508,4.52,5.28,2.28
20576160000,0.999817,-0.016296,0.012146,0.001221,-0.019531,0.023438,0.011719,17.943462,,,
20609611000,0.999817,-0.016296,0.012146,0.001221,0.019531,0.023438,-0.027344,17.976913,,,
20624804000,0.999817,-0.016296,0.012146,0.001221,0.019531,0.023438,0.011719,17.992106,,,
20644337000,0.999817,-0.016296,0.012146,0.001221,0.019531,0.023438,-0.027344,18.011639,,,
20664584000,0.999817,-0.016296,0.012146,0.001221,-0.019531,-0.015625,0.011719,18.031886,,,
20689668000,0.999817,-0.016296,0.012146,0.001221,-0.019531,0.023438,0.011719,18.05697,,,
20704249000,0.999817,-0.016296,0.012146,0.001221,-0.019531,0.015625,0.011719,18.071551,,,
20724628000,0.999817,-0.016296,0.012146,0.001221,0.019531,0.015625,0.011719,18.09193,,,
20744071000,0.999817,-0.016296,0.012146,0.001221,-0.019531,0.015625,-0.027344,18.111373,,,
20767471000,0.999817,-0.016296,0.012146,0.001221,-0.019531,0.015625,0.011719,18.134773,4.51,5.26,2.25
20783690000,0.999817,-0.016296,0.012146,0.001221,0.019531,0.015625,0.011719,18.150992,,,
20804352000,0.999817,-0.016296,0.012146,0.001221,0.019531,0.015625,0.011719,18.171654,,,
20823748000,0.999817,-0.016296,0.012146,0.001221,-0.019531,0.015625,0.011719,18.19105,,,
20849011000,0.999817,-0.016296,0.012146,0.001221,-0.019531,0.015625,0.011719,18.216313,,,
20863890000,0.999817,-0.016296,0.012146,0.001221,0.019531,-0.023438,0.011719,18.231192,,,
20884030000,0.999817,-0.016296,0.012146,0.001221,-0.019531,0.015625,-0.027344,18.251332,,,
20903627000,0.999817,-0.016296,0.012146,0.001221,-0.019531,-0.023438,-0.027344,18.270929,,,
20929761000,0.999817,-0.016296,0.012146,0.001221,-0.019531,0.015625,-0.027344,18.297063,,,
20944027000,0.999817,-0.016296,0.012146,0.001221,0.019531,0.015625,-0.027344,18.311329,,,
20964380000,0.999817,-0.016296,0.012146,0.001221,0.019531,-0.023438,-0.027344,18.331682,4.5,5.25,2.28
20983615000,0.999817,-0.016296,0.012146,0.001221,0.019531,-0.023438,0.011719,18.350917,,,
21006100000,0.999817,-0.016296,0.012146,0.001221,-0.019531,0.015625,0.011719,18.373402,,,
21023477000,0.999817,-0.016296,0.012146,0.001221,-0.019531,0.015625,0.011719,18.390779,,,
21043445000,0.999817,-0.016296,0.012146,0.001221,0.019531,0.015625,0.011719,18.410747,,,
21062928000,0.999817,-0.016296,0.012146,0.001221,-0.019531,0.015625,0.011719,18.43023,,,
21089288000,0.999817,-0.016296,0.012146,0.001221,0.019531,-0.023438,0.011719,18.45659,,,
21104904000,0.999817,-0.016296,0.012146,0.001221,0.019531,-0.023438,0.011719,18.472206,,,
21123386000,0.999817,-0.016296,0.012146,0.001221,0.019531,-0.023438,0.046875,18.490688,,,
21144554000,0.999817,-0.016296,0.012146,0.001221,-0.019531,0.015625,0.011719,18.511856,,,
21168664000,0.999817,-0.016296,0.012146,0.001221,-0.019531,0.015625,0.003906,18.535966,4.54,5.25,2.25
21183134000,0.999817,-0.016296,0.012146,0.001221,-0.019531,-0.023438,0.003906,18.550436,,,
21202678000,0.999817,-0.016296,0.012146,0.001221,-0.019531,0.015625,0.003906,18.56998,,,
21223948000,0.999817,-0.016296,0.012146,0.001221,-0.019531,0.015625,0.003906,18.59125,,,
21243167000,0.999817,-0.016296,0.012146,0.001221,-0.019531,0.015625,0.003906,18.610469,,,
21262910000,0.999817,-0.016296,0.012146,0.001221,-0.019531,0.015625,0.003906,18.630212,,,
21286218000,0.999817,-0.016296,0.012146,0.001221,0.019531,-0.023438,0.003906,18.65352,,,
21303025000,0.999817,-0.016296,0.012146,0.001221,-0.019531,0.015625,0.003906,18.670327,,,
21322928000,0.999817,-0.016296,0.012146,0.001221,-0.019531,0.015625,0.003906,18.69023,,,
21342709000,0.999817,-0.016296,0.012146,0.001221,-0.019531,-0.023438,0.003906,18.710011,,,
21364463000,0.999817,-0.016296,0.012146,0.001221,-0.019531,0.015625,0.003906,18.731765,4.47,5.24,2.27
21382104000,0.999817,-0.016296,0.012146,0.001221,-0.019531,0.015625,0.003906,18.749406,,,
21402885000,0.999817,-0.016296,0.012146,0.001221,-0.019531,0.015625,0.003906,18.770187,,,
21425676000,0.999817,-0.016296,0.012146,0.001221,-0.019531,-0.023438,0.003906,18.792978,,,
21442404000,0.999817,-0.016296,0.012146,0.001221,-0.019531,0.015625,0.003906,18.809706,,,
21462362000,0.999817,-0.016296,0.012146,0.001221,-0.019531,-0.023438,0.003906,18.829664,,,
21486173000,0.999817,-0.016296,0.012146,0.001221,-0.019531,0.015625,0.003906,18.853475,,,
21501862000,0.999817,-0.016296,0.012146,0.001221,-0.019531,0.015625,0.003906,18.869164,,,
21522495000,0.999817,-0.016296,0.012146,0.001221,-0.019531,-0.023438,0.003906,18.889797,,,
21546370000,0.999817,-0.016296,0.012146,0.001221,-0.019531,0.015625,0.003906,18.913672,,,
21562154000,0.999817,-0.016296,0.012146,0.001221,0.019531,0.015625,-0.035156,18.929456,4.51,5.25,2.3
21582125000,0.999817,-0.016296,0.012146,0.001221,0.027344,0.015625,0.003906,18.949427,,,
21602324000,0.999817,-0.016296,0.012146,0.001221,-0.011719,0.015625,0.003906,18.969626,,,
21625068000,0.999817,-0.016296,0.012146,0.001221,-0.011719,-0.023438,0.003906,18.99237,,,
21642002000,0.999817,-0.016296,0.012146,0.001221,-0.011719,0.015625,0.011719,19.009304,,,
21661484000,0.999817,-0.016296,0.012146,0.001221,-0.011719,-0.023438,0.011719,19.028786,,,
21681819000,0.999817,-0.016296,0.012146,0.001221,-0.011719,0.015625,0.003906,19.049121,,,
21704176000,0.999817,-0.016296,0.012146,0.001221,0.027344,0.015625,-0.035156,19.071478,,,
21726080000,0.999817,-0.016296,0.012146,0.001221,0.027344,0.015625,0.011719,19.093382,,,
21741220000,0.999817,-0.016296,0.012146,0.001221,-0.011719,-0.023438,-0.027344,19.108522,,,
21762329000,0.999817,-0.016296,0.012146,0.001221,-0.011719,0.015625,0.011719,19.129631,4.5,5.22,2.27
21785201000,0.999817,-0.016296,0.012146,0.001221,-0.011719,-0.023438,0.011719,19.152503,,,
21800974000,0.999817,-0.016296,0.012146,0.001221,-0.011719,0.015625,0.011719,19.168276,,,
21821598000,0.999817,-0.016296,0.012146,0.001221,-0.011719,-0.023438,0.003906,19.1889,,,
21851270000,0.999817,-0.016296,0.012146,0.001221,-0.011719,0.015625,0.003906,19.218572,,,
21867794000,0.999817,-0.016296,0.012146,0.001221,-0.011719,0.015625,0.003906,19.235096,,,
21881858000,0.999817,-0.016296,0.012146,0.001221,0.027344,0.015625,0.003906,19.24916,,,
21901190000,0.999817,-0.016296,0.012146,0.001221,-0.011719,-0.023438,-0.035156,19.268492,,,
21931083000,0.999817,-0.016296,0.012146,0.001221,-0.011719,0.015625,0.003906,19.298385,,,
21941201000,0.999817,-0.016296,0.012146,0.001221,0.027344,-0.023438,0.003906,19.308503,,,
21961906000,0.999817,-0.016296,0.012146,0.001221,0.027344,-0.023438,-0.035156,19.329208,4.53,5.24,2.27
21980885000,0.999817,-0.016296,0.012146,0.001221,-0.011719,0.015625,0.003906,19.348187,,,
22010961000,0.999817,-0.016296,0.012146,0.001221,-0.011719,0.015625,0.011719,19.378263,,,
22020589000,0.999817,-0.016296,0.012146,0.001221,-0.011719,0.015625,0.011719,19.387891,,,
22040649000,0.999817,-0.016296,0.012146,0.001221,-0.011719,0.015625,0.003906,19.407951,,,
22060435000,0.999817,-0.016296,0.012146,0.001221,-0.011719,0.015625,-0.035156,19.427737,,,
22084199000,0.999817,-0.016296,0.012146,0.001221,-0.011719,-0.023438,0.003906,19.451501,,,
22100241000,0.999817,-0.016296,0.012146,0.001221,0.027344,0.015625,0.003906,19.467543,,,
22122287000,0.999817,-0.016296,0.012146,0.001221,-0.011719,0.007812,0.003906,19.489589,,,
22145662000,0.999817,-0.016296,0.012146,0.001221,0.027344,-0.03125,-0.035156,19.512964,,,
22160352000,0.999817,-0.016296,0.012146,0.001221,0.027344,0.007812,0.011719,19.527654,4.52,5.26,2.29
22180161000,0.999817,-0.016357,0.012146,0.001282,-0.019531,-0.03125,0.003906,19.547463,,,
22209793000,0.999817,-0.016357,0.012146,0.001343,2.570312,0.082031,0.003906,19.577095,,,
22225868000,0.999817,-0.016541,0.012207,0.001282,1.511719,0.082031,0.164062,19.59317,,,
22240506000,0.999817,-0.016418,0.012207,0.001282,0.125,-0.148438,-0.074219,19.607808,,,
22260682000,0.999817,-0.016357,0.012207,0.001282,-0.800781,-0.03125,-0.113281,19.627984,,,
22286503000,0.999817,-0.016296,0.012268,0.001282,0.15625,-0.109375,-0.074219,19.653805,,,
22299582000,0.999817,-0.016418,0.012268,0.001282,1.105469,0.042969,-0.027344,19.666884,,,
22323823000,0.999817,-0.016174,0.012268,0.001282,0.945312,-0.109375,0.125,19.691125,,,
22339549000,0.999817,-0.016296,0.012329,0.001282,0.257812,0.0,0.085938,19.706851,,,
22359348000,0.999817,-0.016235,0.01239,0.001221,0.171875,-0.078125,-0.066406,19.72665,4.52,5.24,2.32
22379989000,0.999817,-0.016235,0.01239,0.001221,-0.210938,0.042969,0.164062,19.747291,,,
22406756000,0.999817,-0.016479,0.01239,0.001221,-0.171875,0.042969,0.046875,19.774058,,,
22419916000,0.999756,-0.016541,0.012451,0.001221,-0.179688,-0.03125,0.164062,19.787218,,,
22439958000,0.999817,-0.016418,0.012329,0.001221,-0.332031,-0.109375,-0.074219,19.80726,,,
22460660000,0.999817,-0.016418,0.012451,0.001221,0.003906,0.042969,0.039062,19.827962,,,
22486467000,0.999817,-0.016296,0.01239,0.001221,-0.265625,0.121094,0.003906,19.853769,,,
22500003000,0.999817,-0.016235,0.012512,0.001221,-0.273438,0.007812,-0.113281,19.867305,,,
22519092000,0.999817,-0.016174,0.012573,0.001221,-0.234375,-0.070312,-0.074219,19.886394,,,
22539937000,0.999817,-0.016113,0.012573,0.001221,-0.664062,0.007812,0.078125,19.907239,,,
22558959000,0.999817,-0.016174,0.012695,0.001282,-0.742188,0.0,0.078125,19.926261,4.53,5.26,2.31
22588758000,0.999817,-0.016113,0.012695,0.001282,-1.351562,-0.078125,0.15625,19.95606,,,
22599566000,0.999817,-0.016113,0.012695,0.001282,-0.933594,-0.03125,0.003906,19.966868,,,
22619084000,0.999817,-0.015991,0.012695,0.001282,-0.441406,0.0,-0.074219,19.986386,,,
22639777000,0.999817,-0.015991,0.012756,0.001221,-0.136719,0.0,0.003906,20.007079,,,
22658775000,0.999817,-0.015991,0.012756,0.001221,0.0625,-0.039062,-0.035156,20.026077,,,
22689040000,0.999817,-0.015991,0.012817,0.001221,0.179688,-0.039062,0.078125,20.056342,,,
22698605000,0.999817,-0.015991,0.012756,0.001221,0.371094,-0.039062,-0.035156,20.065907,,,
22719422000,0.999817,-0.01593,0.012817,0.001221,0.101562,0.0,0.078125,20.086724,,,
22738830000,0.999817,-0.015869,0.012817,0.00116,-0.28125,0.0,0.039062,20.106132,,,
22769014000,0.999817,-0.015869,0.012817,0.00116,-0.96875,-0.039062,-0.035156,20.136316,4.56,5.29,2.31
22781415000,0.999817,-0.015869,0.012817,0.00116,-0.976562,0.0,0.039062,20.148717,,,
22799053000,0.999817,-0.01593,0.012817,0.00116,-0.902344,-0.039062,-0.035156,20.166355,,,
22828650000,0.999817,-0.01593,0.012817,0.001221,-0.128906,0.0,0.003906,20.195952,,,
22844168000,0.999817,-0.01593,0.012817,0.001221,-0.128906,-0.039062,0.003906,20.21147,,,
22858768000,0.999817,-0.01593,0.012817,0.001221,-0.128906,-0.039062,0.003906,20.22607,,,
22878777000,0.999817,-0.015869,0.012817,0.001221,-0.089844,0.0,-0.035156,20.246079,,,
22900329000,0.999817,-0.015869,0.012817,0.001221,-0.128906,0.0,0.039062,20.267631,,,
22925180000,0.999817,-0.015869,0.012817,0.001221,-0.128906,0.0,0.003906,20.292482,,,
22937824000,0.999817,-0.015869,0.012817,0.001221,-0.089844,-0.039062,-0.035156,20.305126,,,
22958128000,0.999817,-0.015869,0.012756,0.001221,0.832031,-0.039062,-0.035156,20.32543,4.59,5.27,2.31
22987505000,0.999817,-0.015686,0.012756,0.001221,-0.164062,0.0,-0.035156,20.354807,,,
22998553000,0.999817,-0.015747,0.012756,0.001221,-0.625,-0.007812,0.003906,20.365855,,,
23018318000,0.999817,-0.015747,0.012817,0.001221,-0.96875,-0.046875,-0.035156,20.38562,,,
23038222000,0.999817,-0.015747,0.012817,0.001221,-0.433594,0.027344,0.003906,20.405524,,,
23067557000,0.999817,-0.015747,0.012817,0.001221,-0.089844,-0.007812,0.003906,20.434859,,,
23077836000,0.999817,-0.015747,0.012817,0.001221,-0.011719,-0.007812,0.003906,20.445138,,,
23098633000,0.999817,-0.015747,0.012817,0.001221,0.292969,-0.046875,-0.035156,20.465935,,,
23127589000,0.999817,-0.015686,0.012756,0.00116,0.027344,-0.007812,-0.035156,20.494891,,,
23138071000,0.999817,-0.015625,0.012756,0.00116,-0.128906,-0.085938,-0.035156,20.505373,,,
23157564000,0.999817,-0.015625,0.012756,0.00116,-0.703125,-0.007812,-0.035156,20.524866,,,
23178231000,0.999817,-0.015564,0.012695,0.00116,-0.734375,-0.164062,-0.035156,20.545533,4.57,5.29,2.33
23199114000,0.999817,-0.015564,0.012695,0.00116,-0.617188,-0.007812,0.003906,20.566416,,,
23217700000,0.999817,-0.015564,0.012695,0.00116,-0.128906,-0.007812,0.003906,20.585002,,,
23237546000,0.999817,-0.015564,0.012695,0.00116,0.0625,-0.007812,0.003906,20.604848,,,
23263448000,0.999817,-0.015564,0.012695,0.00116,0.445312,-0.007812,0.003906,20.63075,,,
23277262000,0.999817,-0.015625,0.012756,0.001099,-0.578125,-0.007812,-0.035156,20.644564,,,
23297582000,0.999817,-0.015625,0.012756,0.001099,-0.734375,0.027344,0.003906,20.664884,,,
23326946000,0.999817,-0.015625,0.012756,0.001099,-0.074219,-0.007812,0.003906,20.694248,,,
23337115000,0.999817,-0.015625,0.012756,0.001099,-0.113281,-0.007812,0.003906,20.704417,,,
23357650000,0.999817,-0.015564,0.012756,0.001099,-0.113281,-0.007812,0.003906,20.724952,,,
23377995000,0.999817,-0.015564,0.012756,0.001099,-0.113281,-0.007812,0.003906,20.745297,4.51,5.28,2.29
23407144000,0.999817,-0.015625,0.012756,0.001099,0.539062,-0.007812,0.003906,20.774446,,,
23417090000,0.999817,-0.015625,0.012756,0.001099,0.042969,-0.007812,0.003906,20.784392,,,
23437648000,0.999817,-0.015564,0.012756,0.001099,-0.648438,-0.046875,-0.035156,20.80495,,,
23457132000,0.999817,-0.015564,0.012695,0.001099,-0.304688,-0.007812,-0.035156,20.824434,,,
23477569000,0.999817,-0.015564,0.012695,0.001099,-0.113281,0.0,0.003906,20.844871,,,
23506483000,0.999817,-0.015564,0.012695,0.001099,-0.113281,0.0,0.003906,20.873785,,,
23526331000,0.999817,-0.015564,0.012695,0.001099,-0.113281,0.0,-0.035156,20.893633,,,
23536524000,0.999817,-0.015564,0.012695,0.001099,-0.113281,0.0,0.003906,20.903826,,,
23557284000,0.999817,-0.015564,0.012695,0.001099,-0.113281,0.0,0.003906,20.924586,,,
23577209000,0.999817,-0.015564,0.012695,0.001099,-0.113281,0.0,0.003906,20.944511,4.57,5.3,2.28
23606226000,0.999817,-0.015564,0.012695,0.001099,-0.105469,0.0,0.003906,20.973528,,,
23616391000,0.999817,-0.015625,0.012695,0.00116,-0.105469,0.0,0.003906,20.983693,,,
23646089000,0.999817,-0.015625,0.012695,0.00116,-0.105469,0.0,0.003906,21.013391,,,
23656233000,0.999817,-0.015625,0.012695,0.00116,-0.105469,0.0,0.003906,21.023535,,,
23677074000,0.999817,-0.015625,0.012695,0.00116,-0.105469,0.0,0.003906,21.044376,,,
23706330000,0.999817,-0.015625,0.012695,0.00116,-0.105469,0.0,-0.035156,21.073632,,,
23716113000,0.999817,-0.015625,0.012695,0.00116,-0.105469,0.0,0.003906,21.083415,,,
23737011000,0.999817,-0.015564,0.012695,0.00116,-0.097656,0.0,0.003906,21.104313,,,
23756791000,0.999817,-0.015625,0.012695,0.00116,-0.132812,0.0,0.003906,21.124093,,,
23778036000,0.999817,-0.015625,0.012756,0.00116,-0.097656,0.0,0.003906,21.145338,4.57,5.28,2.32
23805470000,0.999817,-0.015625,0.012756,0.00116,-0.097656,0.0,0.011719,21.172772,,,
23815659000,0.999817,-0.015625,0.012756,0.00116,-0.097656,-0.039062,0.011719,21.182961,,,
23837967000,0.999817,-0.015625,0.012695,0.00116,-0.097656,0.0,-0.027344,21.205269,,,
23855266000,0.999817,-0.015625,0.012695,0.00116,-0.097656,0.0,-0.027344,21.222568,,,
23877939000,0.999817,-0.015625,0.012695,0.00116,-0.089844,0.0,0.011719,21.245241,,,
23901363000,0.999817,-0.015625,0.012695,0.00116,-0.089844,-0.039062,0.011719,21.268665,,,
23916895000,0.999817,-0.015625,0.012634,0.00116,-0.089844,0.0,-0.027344,21.284197,,,
23937093000,0.999817,-0.015625,0.012695,0.00116,-0.089844,0.0,-0.027344,21.304395,,,
23957057000,0.999817,-0.015564,0.012695,0.001099,-0.089844,0.0,0.011719,21.324359,,,
23982065000,0.999817,-0.015564,0.012695,0.00116,-0.089844,0.0,0.011719,21.349367,4.6,5.26,2.29
23997310000,0.999817,-0.015564,0.012695,0.001099,-0.089844,0.0,0.011719,21.364612,,,
24017122000,0.999817,-0.015564,0.012695,0.001099,-0.089844,0.0,0.011719,21.384424,,,
24037488000,0.999817,-0.015564,0.012695,0.001099,-0.082031,-0.039062,0.011719,21.40479,,,
24062014000,0.999817,-0.015503,0.012695,0.001099,-0.003906,0.007812,0.011719,21.429316,,,
24075278000,0.999817,-0.015564,0.012756,0.001099,-0.003906,0.007812,0.011719,21.44258,,,
24102483000,0.999817,-0.015564,0.012695,0.001099,-0.003906,0.007812,0.011719,21.469785,,,
24118540000,0.999817,-0.015564,0.012695,0.001099,-0.003906,0.007812,0.046875,21.485842,,,
24136648000,0.999817,-0.015564,0.012695,0.001099,-0.003906,0.007812,0.011719,21.50395,,,
24156869000,0.999817,-0.015564,0.012756,0.001099,-0.003906,0.007812,0.011719,21.524171,,,
24177086000,0.999817,-0.015564,0.012756,0.001038,0.003906,-0.03125,-0.027344,21.544388,4.54,5.26,2.31
24203032000,0.999817,-0.015564,0.012756,0.001038,0.003906,-0.03125,0.011719,21.570334,,,
24222582000,0.999817,-0.015625,0.012756,0.001038,0.003906,0.007812,0.011719,21.589884,,,
24236580000,0.999817,-0.015625,0.012756,0.001038,0.003906,0.007812,0.011719,21.603882,,,
24257065000,0.999817,-0.015564,0.012756,0.001038,0.003906,0.007812,0.011719,21.624367,,,
24279127000,0.999817,-0.015625,0.012756,0.001099,0.003906,0.007812,0.011719,21.646429,,,
24303119000,0.999817,-0.015625,0.012756,0.001038,0.042969,0.007812,0.011719,21.670421,,,
24320003000,0.999817,-0.015625,0.012756,0.001099,-0.003906,0.007812,0.011719,21.687305,,,
24337279000,0.999817,-0.015625,0.012695,0.001038,-0.011719,0.007812,0.011719,21.704581,,,
24361081000,0.999817,-0.015625,0.012695,0.001099,-0.011719,0.007812,0.011719,21.728383,4.56,5.28,2.28
24377349000,0.999817,-0.015625,0.012695,0.001099,-0.011719,0.007812,0.011719,21.744651,,,
24396655000,0.999817,-0.015625,0.012695,0.001099,-0.011719,0.007812,0.011719,21.763957,,,
24419775000,0.999817,-0.015625,0.012756,0.001099,-0.011719,0.007812,-0.027344,21.787077,,,
24442046000,0.999817,-0.015625,0.012756,0.001099,-0.011719,0.0,0.011719,21.809348,,,
24456631000,0.999817,-0.015686,0.012756,0.001099,-0.003906,-0.03125,0.011719,21.823933,,,
24476602000,0.999817,-0.015686,0.012756,0.001038,-0.003906,0.007812,0.011719,21.843904,,,
24498076000,0.999817,-0.015686,0.012695,0.001099,-0.003906,0.007812,0.011719,21.865378,,,
24524248000,0.999817,-0.015686,0.012695,0.001099,-0.003906,0.007812,0.011719,21.89155,,,
24536268000,0.999817,-0.015625,0.012695,0.001038,-0.003906,0.007812,-0.027344,21.90357,,,
24557017000,0.999817,-0.015686,0.012695,0.001038,-0.003906,0.007812,0.011719,21.924319,,,
24577937000,0.999817,-0.015686,0.012695,0.001038,-0.003906,0.007812,0.011719,21.945239,4.57,5.29,2.29
24602340000,0.999817,-0.015686,0.012695,0.001038,-0.003906,0.007812,0.011719,21.969642,,,
24624817000,0.999817,-0.015686,0.012695,0.001038,-0.003906,0.007812,0.011719,21.992119,,,
24637136000,0.999817,-0.015625,0.012695,0.001038,-0.003906,0.007812,0.046875,22.004438,,,
24657883000,0.999817,-0.015564,0.012695,0.001038,-0.003906,0.007812,0.011719,22.025185,,,
24676642000,0.999817,-0.015625,0.012695,0.001038,0.035156,0.007812,-0.027344,22.043944,,,
24697409000,0.999817,-0.015625,0.012695,0.001038,-0.003906,0.007812,0.011719,22.064711,,,
24717146000,0.999817,-0.015625,0.012695,0.001038,-0.003906,0.007812,0.011719,22.084448,,,
24741170000,0.999817,-0.015625,0.012695,0.001099,-0.003906,0.007812,0.011719,22.108472,,,
24762208000,0.999817,-0.015625,0.012695,0.001038,-0.003906,0.007812,0.011719,22.12951,4.55,5.29,2.31
24777632000,0.999817,-0.015686,0.012695,0.001038,-0.039062,0.0,0.011719,22.144934,,,
24797182000,0.999817,-0.015686,0.012695,0.001038,-0.003906,-0.039062,0.011719,22.164484,,,
24818664000,0.999817,-0.015686,0.012695,0.001099,-0.003906,0.0,0.011719,22.185966,,,
24842854000,0.999817,-0.015686,0.012695,0.001099,-0.003906,0.0,0.011719,22.210156,,,
24856867000,0.999817,-0.015686,0.012695,0.001099,-0.003906,0.007812,0.011719,22.224169,,,
24878697000,0.999817,-0.015686,0.012695,0.001099,-0.003906,0.007812,-0.027344,22.245999,,,
24902176000,0.999817,-0.015686,0.012695,0.001099,-0.003906,0.007812,0.011719,22.269478,,,
24923943000,0.999817,-0.015686,0.012695,0.001099,-0.039062,0.007812,0.011719,22.291245,,,
24947341000,0.999817,-0.015747,0.012695,0.001099,-0.003906,0.007812,0.011719,22.314643,,,
24963108000,0.999817,-0.015747,0.012695,0.001099,-0.039062,0.007812,0.011719,22.33041,4.53,5.27,2.33
24983854000,0.999817,-0.015747,0.012695,0.001099,-0.003906,0.007812,0.011719,22.351156,,,
25002386000,0.999817,-0.015747,0.012634,0.001099,-0.003906,0.007812,0.011719,22.369688,,,
25023103000,0.999817,-0.015686,0.012634,0.001099,-0.003906,0.007812,0.046875,22.390405,,,
25042833000,0.999817,-0.015686,0.012634,0.001099,-0.003906,0.007812,0.011719,22.410135,,,
25072895000,0.999817,-0.015747,0.012634,0.001099,-0.003906,0.0,-0.027344,22.440197,,,
25087987000,0.999817,-0.015686,0.012695,0.001038,-0.003906,0.0,0.011719,22.455289,,,
25102783000,0.999817,-0.015686,0.012634,0.001038,-0.039062,0.0,0.011719,22.470085,,,
25122444000,0.999817,-0.015747,0.012634,0.001038,-0.003906,0.0,0.011719,22.489746,,,
25152470000,0.999817,-0.015747,0.012634,0.001038,-0.003906,-0.039062,0.011719,22.519772,,,
25162487000,0.999817,-0.015808,0.012634,0.001038,-0.003906,0.007812,0.011719,22.529789,4.52,5.28,2.3
25181859000,0.999817,-0.015747,0.012634,0.001038,-0.003906,0.007812,0.011719,22.549161,,,
25202776000,0.999817,-0.015747,0.012634,0.001038,-0.003906,0.007812,0.011719,22.570078,,,
25221977000,0.999817,-0.015808,0.012573,0.001038,-0.003906,0.0,0.011719,22.589279,,,
25242299000,0.999817,-0.015808,0.012634,0.001038,-0.003906,0.007812,0.011719,22.609601,,,
25262758000,0.999817,-0.015808,0.012634,0.001038,-0.003906,0.007812,0.011719,22.63006,,,
25285866000,0.999817,-0.015808,0.012634,0.001038,-0.003906,0.007812,0.011719,22.653168,,,
25301690000,0.999817,-0.015747,0.012634,0.001038,-0.003906,0.007812,-0.027344,22.668992,,,
25321712000,0.999817,-0.015747,0.012634,0.001038,-0.003906,0.007812,-0.027344,22.689014,,,
25352288000,0.999817,-0.015808,0.012634,0.001099,-0.003906,0.007812,0.011719,22.71959,,,
25361471000,0.999817,-0.015808,0.012634,0.001099,-0.039062,0.007812,-0.027344,22.728773,4.61,5.27,2.32
25381610000,0.999817,-0.015747,0.012573,0.001099,-0.003906,0.007812,0.011719,22.748912,,,
25402206000,0.999817,-0.015747,0.012573,0.001038,-0.003906,0.0,0.011719,22.769508,,,
25427436000,0.999817,-0.015808,0.012573,0.001038,-0.003906,0.0,0.011719,22.794738,,,
25444552000,0.999817,-0.015808,0.012573,0.001038,-0.003906,0.007812,0.011719,22.811854,,,
25461407000,0.999817,-0.015808,0.012573,0.001038,-0.003906,0.007812,0.011719,22.828709,,,
25486936000,0.999817,-0.015808,0.012573,0.001038,-0.003906,-0.03125,0.011719,22.854238,,,
25502061000,0.999817,-0.015808,0.012573,0.001038,-0.003906,-0.03125,0.011719,22.869363,,,
25521019000,0.999817,-0.015808,0.012573,0.001038,-0.003906,0.007812,0.046875,22.888321,,,
25541039000,0.999817,-0.015808,0.012573,0.001038,-0.003906,0.007812,0.011719,22.908341,,,
25560903000,0.999817,-0.015808,0.012573,0.001038,-0.003906,-0.03125,-0.027344,22.928205,4.59,5.27,2.28
25581042000,0.999817,-0.015808,0.012573,0.001038,-0.003906,0.007812,0.011719,22.948344,,,
25606973000,0.999817,-0.015808,0.012573,0.000977,-0.003906,0.007812,0.011719,22.974275,,,
25621058000,0.999817,-0.015808,0.012573,0.000977,-0.003906,0.007812,0.011719,22.98836,,,
25641278000,0.999817,-0.015808,0.012573,0.000977,-0.003906,0.007812,0.011719,23.00858,,,
25661378000,0.999817,-0.015808,0.012512,0.000977,-0.003906,0.007812,0.011719,23.02868,,,
25687208000,0.999817,-0.015808,0.012512,0.000977,-0.003906,0.007812,-0.027344,23.05451,,,
25700661000,0.999817,-0.015808,0.012512,0.000977,-0.003906,0.007812,0.011719,23.067963,,,
25720474000,0.999817,-0.015808,0.012512,0.000977,-0.039062,0.007812,0.011719,23.087776,,,
25741258000,0.999817,-0.015808,0.012512,0.000977,-0.003906,0.007812,0.011719,23.10856,,,
25760874000,0.999817,-0.015747,0.012512,0.000977,-0.003906,0.007812,0.011719,23.128176,4.53,5.28,2.29
25780826000,0.999817,-0.015808,0.012512,0.000977,-0.039062,0.007812,0.011719,23.148128,,,
25800556000,0.999817,-0.015747,0.012512,0.000916,-0.003906,0.007812,0.011719,23.167858,,,
25822207000,0.999817,-0.015808,0.012512,0.000916,-0.003906,0.007812,0.011719,23.189509,,,
25840577000,0.999817,-0.015808,0.012512,0.000916,-0.003906,-0.03125,0.011719,23.207879,,,
25860282000,0.999817,-0.015747,0.012512,0.000916,-0.003906,0.007812,0.011719,23.227584,,,
25890403000,0.999817,-0.015808,0.012512,0.000916,-0.003906,-0.03125,-0.027344,23.257705,,,
25900567000,0.999817,-0.015808,0.012512,0.000916,-0.003906,0.007812,0.011719,23.267869,,,
25919985000,0.999817,-0.015808,0.012512,0.000916,-0.039062,0.007812,0.011719,23.287287,,,
25939941000,0.999817,-0.015808,0.012512,0.000916,-0.003906,0.007812,0.011719,23.307243,,,
25966102000,0.999817,-0.015869,0.012512,0.000916,-0.003906,0.007812,-0.027344,23.333404,4.58,5.28,2.31
25979681000,0.999817,-0.015808,0.012512,0.000916,-0.003906,0.007812,0.011719,23.346983,,,
26006630000,0.999817,-0.015869,0.012512,0.000916,-0.003906,-0.03125,-0.027344,23.373932,,,
26020197000,0.999817,-0.015869,0.012512,0.000916,-0.003906,0.007812,0.011719,23.387499,,,
26040350000,0.999817,-0.015869,0.012512,0.000916,-0.003906,0.007812,0.019531,23.407652,,,
26066565000,0.999817,-0.015869,0.012512,0.000916,-0.003906,0.007812,0.019531,23.433867,,,
26079917000,0.999817,-0.015869,0.012512,0.000854,-0.003906,0.007812,0.019531,23.447219,,,
26100280000,0.999817,-0.015869,0.012512,0.000854,0.035156,0.007812,0.019531,23.467582,,,
26123060000,0.999817,-0.015869,0.012512,0.000854,-0.003906,0.007812,0.019531,23.490362,,,
26139813000,0.999817,-0.015869,0.012512,0.000854,-0.003906,0.007812,0.019531,23.507115,,,
26161605000,0.999817,-0.015869,0.012512,0.000854,-0.003906,0.007812,0.019531,23.528907,,,
26179143000,0.999817,-0.015869,0.012512,0.000854,-0.003906,0.0,0.011719,23.546445,4.57,5.28,2.31
26209150000,0.999817,-0.015869,0.012512,0.000854,-0.003906,0.0,0.011719,23.576452,,,
26219551000,0.999817,-0.015869,0.012512,0.000854,-0.003906,0.0,0.011719,23.586853,,,
26239126000,0.999817,-0.015869,0.012573,0.000854,-0.003906,0.0,0.011719,23.606428,,,
26261426000,0.999817,-0.015869,0.012573,0.000916,-0.003906,0.0,0.011719,23.628728,,,
26289867000,0.999817,-0.015869,0.012573,0.000916,-0.039062,0.0,-0.027344,23.657169,,,
26304649000,0.999817,-0.015869,0.012573,0.000854,-0.003906,0.0,0.011719,23.671951,,,
26318991000,0.999817,-0.015869,0.012573,0.000854,-0.003906,0.0,0.011719,23.686293,,,
26338812000,0.999817,-0.015869,0.012634,0.000854,-0.003906,0.0,0.046875,23.706114,,,
26359553000,0.999817,-0.015869,0.012573,0.000854,-0.039062,0.0,0.011719,23.726855,,,
26385392000,0.999817,-0.015869,0.012573,0.000854,-0.003906,0.0,0.011719,23.752694,4.52,5.28,2.33
26398824000,0.999817,-0.015869,0.012573,0.000854,-0.003906,0.0,0.011719,23.766126,,,
26418692000,0.999817,-0.015808,0.012573,0.000854,-0.003906,0.0,0.011719,23.785994,,,
26439730000,0.999817,-0.015808,0.012573,0.000854,-0.003906,0.0,0.011719,23.807032,,,
26466296000,0.999817,-0.015808,0.012573,0.000916,-0.003906,0.0,-0.027344,23.833598,,,
26478627000,0.999817,-0.015808,0.012573,0.000854,-0.003906,0.0,0.011719,23.845929,,,
26498456000,0.999817,-0.015808,0.012573,0.000854,-0.003906,0.0,-0.027344,23.865758,,,
26518974000,0.999817,-0.015808,0.012573,0.000854,-0.003906,0.0,0.011719,23.886276,,,
26548835000,0.999817,-0.015747,0.012573,0.000854,-0.003906,0.0,-0.027344,23.916137,,,
26558396000,0.999817,-0.015747,0.012573,0.000854,-0.039062,0.0,0.011719,23.925698,,,
26578391000,0.999817,-0.015747,0.012573,0.000854,-0.003906,-0.039062,0.011719,23.945693,4.57,5.28,2.3
26603523000,0.999817,-0.015808,0.012573,0.000854,-0.003906,0.0,0.011719,23.970825,,,
26618183000,0.999817,-0.015808,0.012573,0.000854,-0.003906,0.0,0.046875,23.985485,,,
26648663000,0.999817,-0.015869,0.012573,0.000854,-0.003906,0.0,0.011719,24.015965,,,
26658313000,0.999817,-0.015808,0.012573,0.000854,-0.003906,0.0,0.011719,24.025615,,,
26677981000,0.999817,-0.015869,0.012573,0.000854,-0.003906,0.0,0.011719,24.045283,,,
26698632000,0.999817,-0.015869,0.012573,0.000854,-0.003906,0.0,0.011719,24.065934,,,
26727881000,0.999817,-0.01593,0.012573,0.000854,-0.003906,0.0,0.011719,24.095183,,,
26744936000,0.999817,-0.01593,0.012573,0.000854,-0.003906,0.0,0.011719,24.112238,,,
26757895000,0.999817,-0.01593,0.012573,0.000854,-0.003906,-0.039062,0.011719,24.125197,,,
26778654000,0.999817,-0.01593,0.012573,0.000854,-0.039062,0.0,0.011719,24.145956,4.56,5.27,2.3
26797914000,0.999817,-0.01593,0.012573,0.000854,-0.003906,0.0,0.011719,24.165216,,,
26818198000,0.999817,-0.01593,0.012573,0.000854,-0.003906,0.0,0.011719,24.1855,,,
26847978000,0.999817,-0.01593,0.012573,0.000854,-0.003906,0.0,0.011719,24.21528,,,
26857876000,0.999817,-0.01593,0.012573,0.000916,-0.003906,0.0,0.011719,24.225178,,,
26879131000,0.999817,-0.01593,0.012573,0.000916,-0.003906,0.0,0.011719,24.246433,,,
26897924000,0.999817,-0.01593,0.012573,0.000916,-0.003906,-0.039062,0.011719,24.265226,,,
26928420000,0.999817,-0.01593,0.012573,0.000854,0.035156,0.0,0.011719,24.295722,,,
26937725000,0.999817,-0.01593,0.012573,0.000854,-0.003906,-0.039062,0.011719,24.305027,,,
26957604000,0.999817,-0.01593,0.012634,0.000854,-0.003906,0.0,0.011719,24.324906,,,
26987612000,0.999817,-0.01593,0.012634,0.000854,-0.039062,-0.03125,0.011719,24.354914,4.55,5.28,2.3
26997529000,0.999817,-0.01593,0.012634,0.000854,-0.003906,0.007812,0.011719,24.364831,,,
27017722000,0.999817,-0.01593,0.012634,0.000854,-0.003906,0.007812,-0.027344,24.385024,,,
27043582000,0.999817,-0.01593,0.012634,0.000793,-0.003906,0.007812,0.011719,24.410884,,,
27057343000,0.999817,-0.01593,0.012634,0.000793,-0.039062,0.007812,-0.027344,24.424645,,,
27087152000,0.999817,-0.01593,0.012634,0.000793,-0.003906,0.007812,0.011719,24.454454,,,
27097291000,0.999817,-0.01593,0.012634,0.000793,-0.003906,0.007812,0.011719,24.464593,,,
27117715000,0.999817,-0.01593,0.012634,0.000793,0.003906,-0.03125,0.011719,24.485017,,,
27137476000,0.999817,-0.01593,0.012695,0.000793,0.003906,0.007812,0.011719,24.504778,,,
27167198000,0.999817,-0.01593,0.012695,0.000793,0.003906,0.007812,0.011719,24.5345,,,
27184654000,0.999817,-0.01593,0.012695,0.000793,0.003906,0.007812,0.011719,24.551956,4.55,5.27,2.28
27197395000,0.999817,-0.015869,0.012695,0.000793,0.003906,0.007812,-0.027344,24.564697,,,
27217534000,0.999817,-0.015869,0.012695,0.000793,0.003906,0.007812,0.011719,24.584836,,,
27246312000,0.999817,-0.015869,0.012695,0.000793,0.042969,0.007812,0.011719,24.613614,,,
27256463000,0.999817,-0.015869,0.012695,0.000793,-0.003906,0.007812,0.011719,24.623765,,,
27277010000,0.999817,-0.015869,0.012695,0.000793,-0.003906,0.007812,0.046875,24.644312,,,
27297155000,0.999817,-0.015869,0.012695,0.000793,-0.003906,0.007812,0.011719,24.664457,,,
27326477000,0.999817,-0.015869,0.012695,0.000793,0.035156,-0.03125,-0.027344,24.693779,,,
27336477000,0.999817,-0.015869,0.012695,0.000793,-0.003906,0.007812,0.011719,24.703779,,,
27356764000,0.999817,-0.015869,0.012695,0.000793,-0.003906,0.007812,0.011719,24.724066,,,
27381917000,0.999817,-0.015869,0.012695,0.000793,-0.003906,0.007812,0.003906,24.749219,4.59,5.28,2.28
27396948000,0.999817,-0.015869,0.012695,0.000793,-0.039062,0.007812,0.003906,24.76425,,,
27426078000,0.999817,-0.015869,0.012695,0.000793,-0.039062,0.007812,0.003906,24.79338,,,
27435987000,0.999817,-0.015869,0.012695,0.000793,-0.003906,0.007812,0.003906,24.803289,,,
27457042000,0.999817,-0.015869,0.012695,0.000793,-0.003906,0.007812,0.003906,24.824344,,,
27485994000,0.999817,-0.015869,0.012695,0.000793,-0.003906,0.0,0.039062,24.853296,,,
27501744000,0.999817,-0.015869,0.012695,0.000793,-0.003906,0.0,0.003906,24.869046,,,
27529870000,0.999817,-0.015869,0.012695,0.000793,-0.003906,0.0,0.003906,24.897172,,,
27535712000,0.999817,-0.015869,0.012695,0.000793,-0.003906,0.0,0.003906,24.903014,,,
27556384000,0.999817,-0.015869,0.012695,0.000793,-0.003906,0.0,0.003906,24.923686,,,
27585409000,0.999817,-0.015869,0.012695,0.000793,-0.003906,0.0,0.003906,24.952711,4.56,5.28,2.32
27595567000,0.999817,-0.015869,0.012695,0.000793,-0.003906,0.0,0.003906,24.962869,,,
27616676000,0.999817,-0.015869,0.012695,0.000793,-0.003906,0.0,0.003906,24.983978,,,
27645631000,0.999817,-0.016052,0.012756,0.000854,3.175781,0.113281,0.039062,25.012933,,,
27655324000,0.999817,-0.01593,0.012756,0.000854,2.714844,0.035156,0.15625,25.022626,,,
27677719000,0.999817,-0.016052,0.012939,0.000854,1.136719,-0.078125,-0.074219,25.045021,,,
27705011000,0.999817,-0.015747,0.013,0.000854,-0.785156,-0.039062,0.117188,25.072313,,,
27725843000,0.999817,-0.015442,0.013,0.000854,-1.253906,-0.164062,0.15625,25.093145,,,
27735283000,0.999817,-0.015564,0.013062,0.000854,-0.761719,0.058594,-0.304688,25.102585,,,
27757294000,0.999817,-0.015564,0.013062,0.000793,-1.03125,-0.09375,0.421875,25.124596,,,
27776672000,0.999817,-0.015442,0.013062,0.000793,-0.347656,-0.007812,-0.191406,25.143974,4.58,5.31,2.29
27798602000,0.999817,-0.015564,0.013062,0.000793,0.371094,-0.046875,0.308594,25.165904,,,
27816325000,0.999817,-0.015869,0.013123,0.000793,1.050781,-0.085938,0.269531,25.183627,,,
27836662000,0.999756,-0.015869,0.013245,0.000854,0.238281,0.0,0.039062,25.203964,,,
27865207000,0.999756,-0.015991,0.013306,0.000854,0.800781,-0.039062,0.117188,25.232509,,,
27875313000,0.999756,-0.015991,0.013184,0.000854,1.066406,0.0,0.039062,25.242615,,,
27905373000,0.999756,-0.01593,0.013306,0.000854,0.523438,0.0,0.070312,25.272675,,,
27927346000,0.999756,-0.015869,0.013428,0.000854,0.707031,-0.039062,-0.082031,25.294648,,,
27935358000,0.999756,-0.015808,0.013428,0.000854,0.589844,0.074219,-0.234375,25.30266,,,
27964681000,0.999756,-0.015686,0.013489,0.000793,-0.640625,0.066406,0.1875,25.331983,,,
27985081000,0.999756,-0.015686,0.013611,0.000854,-1.070312,0.066406,-0.226562,25.352383,4.59,5.32,2.23
28010457000,0.999756,-0.015808,0.013672,0.000854,-1.492188,-0.007812,-0.074219,25.377759,,,
28024752000,0.999756,-0.01593,0.013733,0.000854,-1.613281,-0.007812,0.003906,25.392054,,,
28044178000,0.999756,-0.015869,0.013672,0.000854,-1.15625,0.042969,-0.074219,25.41148,,,
28055320000,0.999756,-0.015808,0.013672,0.000854,-1.164062,0.042969,-0.074219,25.422622,,,
28084189000,0.999756,-0.015869,0.013733,0.000854,-2.007812,0.007812,-0.035156,25.451491,,,
28105978000,0.999756,-0.01593,0.013733,0.000854,-0.964844,0.007812,0.003906,25.47328,,,
28130302000,0.999756,-0.015869,0.013733,0.000854,0.148438,0.007812,0.003906,25.497604,,,
28144009000,0.999756,-0.015869,0.013733,0.000854,0.484375,0.007812,0.003906,25.511311,,,
28165035000,0.999756,-0.015808,0.013794,0.000854,-0.664062,0.007812,-0.035156,25.532337,,,
28183819000,0.999756,-0.015808,0.013794,0.000854,-0.855469,0.0,-0.035156,25.551121,4.58,5.34,2.23
28212467000,0.999756,-0.015747,0.013794,0.000854,-0.242188,0.0,0.003906,25.579769,,,
28223622000,0.999756,-0.015747,0.013794,0.000854,-0.242188,0.0,0.003906,25.590924,,,
28243696000,0.999756,-0.015747,0.013794,0.000854,-0.242188,0.0,0.003906,25.610998,,,
28269727000,0.999756,-0.015747,0.013794,0.000854,-0.242188,0.035156,0.003906,25.637029,,,
28283831000,0.999756,-0.015747,0.013794,0.000916,-0.207031,0.0,0.003906,25.651133,,,
28303769000,0.999756,-0.015747,0.013794,0.000854,-0.207031,0.0,0.003906,25.671071,,,
28328411000,0.999756,-0.015747,0.013794,0.000854,-0.242188,0.0,0.003906,25.695713,,,
28343535000,0.999756,-0.015747,0.013794,0.000854,-0.242188,0.0,0.003906,25.710837,,,
28363543000,0.999756,-0.015747,0.013794,0.000854,-0.242188,0.0,-0.035156,25.730845,,,
28384598000,0.999756,-0.015686,0.013794,0.000854,-0.207031,0.0,0.003906,25.7519,4.62,5.35,2.26
28411989000,0.999756,-0.015686,0.013794,0.000854,0.753906,0.0,-0.035156,25.779291,,,
28423057000,0.999756,-0.015686,0.013794,0.000854,-0.742188,0.0,0.003906,25.790359,,,
28443046000,0.999756,-0.015625,0.013733,0.000854,-1.125,0.0,-0.035156,25.810348,,,
28464200000,0.999756,-0.015625,0.013733,0.000854,-0.207031,0.0,0.003906,25.831502,,,
28483063000,0.999756,-0.015625,0.013733,0.000854,-0.207031,0.0,-0.035156,25.850365,,,
28503550000,0.999756,-0.015625,0.013733,0.000854,-0.207031,0.0,-0.035156,25.870852,,,
28533291000,0.999756,-0.015625,0.013733,0.000916,-0.234375,0.0,0.003906,25.900593,,,
28547973000,0.999756,-0.015625,0.013733,0.000916,-0.234375,0.0,0.003906,25.915275,,,
28562855000,0.999756,-0.015625,0.013733,0.000916,-0.234375,0.0,-0.035156,25.930157,,,
28583134000,0.999756,-0.015625,0.013733,0.000916,-0.234375,0.0,0.039062,25.950436,4.57,5.32,2.23
28603664000,0.999756,-0.015564,0.013733,0.000916,-0.199219,0.0,0.003906,25.970966,,,
28628810000,0.999756,-0.015564,0.013733,0.000916,-0.234375,0.0,0.003906,25.996112,,,
28642685000,0.999756,-0.015564,0.013733,0.000916,-0.234375,0.0,-0.035156,26.009987,,,
28662642000,0.999756,-0.015564,0.013733,0.000916,-0.234375,0.0,-0.035156,26.029944,,,
28682756000,0.999756,-0.015564,0.013733,0.000916,-0.226562,0.0,0.003906,26.050058,,,
28707393000,0.999756,-0.015564,0.013733,0.000916,-0.226562,0.0,-0.035156,26.074695,,,
28722712000,0.999756,-0.015503,0.013733,0.000916,-0.226562,0.0,0.003906,26.090014,,,
28742276000,0.999756,-0.015503,0.013794,0.000916,-0.191406,0.0,-0.035156,26.109578,,,
28762972000,0.999756,-0.015503,0.013794,0.000916,-0.226562,0.0,-0.035156,26.130274,,,
28786560000,0.999756,-0.015503,0.013794,0.000916,-0.015625,0.0,0.003906,26.153862,4.59,5.35,2.26
28808810000,0.999756,-0.015564,0.013794,0.000854,-0.015625,0.0,0.003906,26.176112,,,
28822741000,0.999756,-0.015564,0.013794,0.000854,0.019531,0.0,0.003906,26.190043,,,
28846516000,0.999756,-0.015564,0.013794,0.000854,0.019531,0.0,-0.035156,26.213818,,,
28862671000,0.999756,-0.015564,0.013794,0.000916,-0.015625,0.0,-0.035156,26.229973,,,
28884980000,0.999756,-0.015564,0.013794,0.000854,-0.015625,0.0,0.003906,26.252282,,,
28902220000,0.999756,-0.015564,0.013794,0.000854,0.019531,0.0,0.003906,26.269522,,,
28925104000,0.999756,-0.015564,0.013794,0.000854,0.019531,0.0,0.003906,26.292406,,,
28942106000,0.999756,-0.015625,0.013733,0.000854,-0.015625,0.0,-0.035156,26.309408,,,
28963055000,0.999756,-0.015625,0.013733,0.000854,-0.015625,0.0,0.011719,26.330357,,,
28988441000,0.999756,-0.015625,0.013733,0.000916,-0.015625,0.0,-0.027344,26.355743,4.6,5.34,2.36
29002059000,0.999756,-0.015564,0.013733,0.000854,-0.015625,0.0,0.011719,26.369361,,,
29022087000,0.999756,-0.015564,0.013733,0.000854,0.019531,0.0,0.011719,26.389389,,,
29051732000,0.999756,-0.015564,0.013733,0.000916,-0.015625,0.0,0.011719,26.419034,,,
29061675000,0.999756,-0.015564,0.013733,0.000916,-0.015625,0.0,0.011719,26.428977,,,
29081626000,0.999756,-0.015564,0.013733,0.000916,-0.015625,0.0,0.011719,26.448928,,,
29103870000,0.999756,-0.015564,0.013733,0.000916,-0.015625,0.0,0.011719,26.471172,,,
29122556000,0.999756,-0.015625,0.013733,0.000916,0.019531,0.0,0.011719,26.489858,,,
29141995000,0.999756,-0.015625,0.013733,0.000916,-0.015625,0.0,0.011719,26.509297,,,
29162107000,0.999756,-0.015564,0.013733,0.000916,-0.015625,0.0,0.011719,26.529409,,,
29188553000,0.999756,-0.015625,0.013733,0.000916,-0.015625,0.0,0.011719,26.555855,4.56,5.41,2.21
29201255000,0.999756,-0.015564,0.013733,0.000916,-0.015625,0.0,0.011719,26.568557,,,
