timestamp_ns,qw,qx,qy,qz,ax,ay,az
72052499000,0.999878,-0.008606,0.013611,0.000000,0.011719,0.027344,-0.011719
72068231000,0.999878,-0.008606,0.013611,0.000000,-0.027344,-0.011719,-0.011719
72096103000,0.999878,-0.008606,0.013611,0.000000,-0.027344,-0.011719,0.027344
72103292000,0.999878,-0.008606,0.013611,0.000000,-0.027344,0.027344,0.027344
72132496000,0.999878,-0.008606,0.013611,0.000000,0.011719,-0.011719,-0.011719
72152761000,0.999878,-0.008606,0.013611,0.000000,-0.027344,-0.011719,0.027344
72177075000,0.999878,-0.008606,0.013611,0.000000,-0.027344,0.027344,-0.011719
72192146000,0.999878,-0.008606,0.013611,0.000000,-0.027344,-0.011719,-0.011719
72211956000,0.999878,-0.008606,0.013611,0.000000,-0.027344,-0.011719,-0.011719
72235508000,0.999878,-0.008606,0.013611,0.000000,0.011719,0.027344,-0.011719
72256979000,0.999878,-0.008606,0.013611,0.000000,-0.027344,-0.011719,-0.011719
72272318000,0.999878,-0.008606,0.013611,0.000000,-0.019531,-0.011719,-0.011719
72292084000,0.999878,-0.008606,0.013611,0.000000,0.019531,0.027344,0.027344
72314254000,0.999878,-0.008606,0.013611,0.000000,-0.019531,-0.011719,-0.011719
72332260000,0.999878,-0.008606,0.013611,0.000000,-0.027344,-0.011719,-0.011719
72351658000,0.999878,-0.008606,0.013611,0.000000,0.011719,-0.011719,0.027344
72372210000,0.999878,-0.008606,0.013611,0.000000,0.011719,-0.011719,0.027344
72395536000,0.999878,-0.008606,0.013611,0.000000,0.011719,-0.011719,-0.011719
72412339000,0.999878,-0.008606,0.013611,0.000000,-0.027344,-0.003906,-0.011719
72438359000,0.999878,-0.008606,0.013611,0.000000,0.011719,0.035156,-0.019531
72452259000,0.999878,-0.008606,0.013611,0.000000,0.011719,0.035156,0.019531
72471477000,0.999878,-0.008606,0.013611,0.000000,0.011719,0.035156,-0.019531
72492935000,0.999878,-0.008606,0.013611,0.000000,0.011719,-0.003906,-0.019531
72511523000,0.999878,-0.008606,0.013611,0.000000,-0.027344,-0.003906,-0.019531
72531315000,0.999878,-0.008606,0.013611,0.000000,0.011719,0.027344,-0.019531
72557924000,0.999878,-0.008606,0.013611,0.000000,0.011719,0.027344,-0.011719
72571546000,0.999878,-0.008606,0.013611,0.000000,0.011719,-0.011719,0.027344
72591946000,0.999878,-0.008606,0.013611,0.000000,0.011719,-0.011719,-0.011719
72613146000,0.999878,-0.008606,0.013611,0.000000,0.011719,0.027344,0.027344
72637411000,0.999878,-0.008606,0.013611,0.000000,0.011719,-0.011719,-0.011719
72650843000,0.999878,-0.008606,0.013611,0.000000,0.011719,-0.011719,0.027344
72671277000,0.999878,-0.008606,0.013611,0.000000,-0.027344,-0.011719,-0.011719
72691393000,0.999878,-0.008606,0.013611,0.000000,0.011719,-0.011719,-0.011719
72713967000,0.999878,-0.008606,0.013611,0.000000,0.011719,-0.011719,0.027344
72730599000,0.999878,-0.008606,0.013611,0.000000,-0.027344,-0.003906,-0.011719
72752453000,0.999878,-0.008606,0.013611,0.000000,0.011719,-0.003906,0.027344
72771129000,0.999878,-0.008606,0.013611,0.000000,0.011719,-0.003906,-0.011719
72796268000,0.999878,-0.008606,0.013611,0.000000,0.011719,0.035156,-0.011719
72810418000,0.999878,-0.008606,0.013611,0.000000,0.011719,-0.003906,0.027344
72830339000,0.999878,-0.008606,0.013611,0.000000,0.011719,-0.003906,-0.011719
72851177000,0.999878,-0.008606,0.013611,0.000000,-0.027344,-0.003906,-0.011719
72875095000,0.999878,-0.008606,0.013611,0.000000,0.011719,-0.003906,-0.011719
72890457000,0.999878,-0.008606,0.013611,0.000000,0.011719,-0.003906,-0.011719
72910656000,0.999878,-0.008606,0.013611,0.000000,0.003906,-0.003906,-0.011719
72930236000,0.999878,-0.008606,0.013611,0.000000,-0.035156,-0.003906,-0.011719
72956010000,0.999878,-0.008606,0.013611,0.000000,-0.035156,0.035156,-0.011719
72970478000,0.999878,-0.008606,0.013611,0.000000,0.003906,0.035156,-0.011719
72990202000,0.999878,-0.008606,0.013611,0.000000,-0.035156,-0.003906,-0.011719
73011923000,0.999878,-0.008606,0.013611,0.000000,-0.035156,-0.003906,0.027344
73035308000,0.999878,-0.008606,0.013611,0.000000,0.011719,-0.003906,0.027344
73051555000,0.999878,-0.008606,0.013611,0.000000,-0.027344,-0.003906,0.027344
73069777000,0.999878,-0.008606,0.013611,0.000000,0.011719,-0.003906,0.027344
73099747000,0.999878,-0.008606,0.013611,0.000000,0.011719,-0.003906,-0.011719
73109796000,0.999878,-0.008606,0.013611,0.000000,0.011719,-0.003906,-0.011719
73129969000,0.999878,-0.008606,0.013611,0.000000,0.011719,-0.003906,-0.011719
73149556000,0.999878,-0.008606,0.013611,0.000000,-0.027344,-0.003906,0.027344
73179749000,0.999878,-0.008606,0.013611,0.000000,-0.027344,-0.003906,0.027344
73190113000,0.999878,-0.008606,0.013611,0.000000,-0.027344,-0.003906,-0.011719
73210035000,0.999878,-0.008606,0.013611,0.000000,-0.027344,0.035156,0.027344
73230354000,0.999878,-0.008606,0.013611,0.000000,0.011719,-0.003906,0.027344
73249522000,0.999878,-0.008606,0.013611,0.000000,0.011719,-0.003906,0.027344
73273017000,0.999878,-0.008606,0.013611,0.000000,0.011719,0.035156,0.027344
73289582000,0.999878,-0.008606,0.013611,0.000000,-0.027344,0.035156,0.027344
73309987000,0.999878,-0.008606,0.013611,0.000000,-0.027344,-0.003906,0.019531
73329708000,0.999878,-0.008606,0.013611,0.000000,0.011719,-0.003906,-0.019531
73354283000,0.999878,-0.008606,0.013611,0.000000,0.011719,0.035156,-0.019531
73368930000,0.999878,-0.008606,0.013611,0.000000,0.011719,-0.003906,0.019531
73389098000,0.999878,-0.008606,0.013611,0.000000,0.011719,-0.003906,-0.019531
73408619000,0.999878,-0.008606,0.013611,0.000000,0.011719,0.035156,-0.019531
73428755000,0.999878,-0.008606,0.013611,0.000000,0.011719,-0.003906,-0.019531
73448808000,0.999878,-0.008606,0.013611,0.000000,-0.027344,-0.003906,0.019531
73478427000,0.999878,-0.008606,0.013611,0.000000,0.011719,-0.003906,0.019531
73488563000,0.999878,-0.008606,0.013611,0.000000,0.011719,-0.003906,0.019531
73508545000,0.999878,-0.008606,0.013611,0.000000,0.011719,-0.003906,-0.019531
73530425000,0.999878,-0.008606,0.013611,0.000000,-0.027344,-0.003906,-0.019531
73558658000,0.999878,-0.008606,0.013611,0.000000,0.011719,-0.003906,0.019531
73575409000,0.999878,-0.008606,0.013611,0.000000,0.011719,0.035156,0.019531
73588663000,0.999878,-0.008606,0.013611,0.000000,0.011719,-0.003906,-0.019531
73609092000,0.999878,-0.008606,0.013611,0.000000,0.011719,-0.003906,-0.019531
73638030000,0.999878,-0.008606,0.013611,0.000000,0.003906,-0.003906,-0.019531
73648395000,0.999878,-0.008606,0.013611,0.000000,-0.035156,-0.003906,-0.019531
73668478000,0.999878,-0.008606,0.013611,0.000000,0.003906,-0.003906,-0.019531
73688172000,0.999878,-0.008606,0.013611,0.000000,0.003906,-0.003906,0.019531
73708115000,0.999878,-0.008606,0.013611,0.000000,-0.035156,0.035156,-0.019531
73738564000,0.999878,-0.008606,0.013611,0.000000,-0.035156,-0.003906,-0.011719
73748046000,0.999878,-0.008606,0.013611,0.000000,0.003906,-0.003906,-0.011719
73768735000,0.999878,-0.008606,0.013611,0.000000,0.003906,0.035156,-0.011719
73789555000,0.999878,-0.008606,0.013611,0.000000,-0.035156,0.035156,-0.011719
73817973000,0.999878,-0.008606,0.013611,0.000000,-0.027344,-0.003906,0.027344
73834294000,0.999878,-0.008606,0.013611,0.000000,0.011719,-0.003906,-0.011719
73847382000,0.999878,-0.008606,0.013611,0.000000,-0.027344,-0.003906,-0.011719
73870293000,0.999878,-0.008606,0.013611,0.000000,-0.027344,0.035156,-0.011719
73887453000,0.999878,-0.008606,0.013611,0.000000,0.011719,-0.003906,-0.011719
73917387000,0.999878,-0.008606,0.013611,0.000000,0.011719,0.035156,-0.011719
73933612000,0.999878,-0.008606,0.013611,0.000000,0.011719,-0.003906,0.027344
73948337000,0.999878,-0.008606,0.013611,0.000000,0.011719,-0.003906,0.027344
73967794000,0.999878,-0.008606,0.013611,0.000000,0.011719,-0.003906,0.027344
73988271000,0.999878,-0.008606,0.013611,0.000000,-0.027344,-0.003906,-0.011719
74012737000,0.999878,-0.008606,0.013611,0.000000,-0.027344,-0.003906,-0.011719
74027450000,0.999878,-0.008606,0.013611,0.000000,0.011719,-0.003906,-0.011719
74048500000,0.999878,-0.008606,0.013611,0.000000,0.011719,-0.003906,0.027344
74069395000,0.999878,-0.008606,0.013611,0.000000,0.011719,-0.003906,0.027344
74092861000,0.999878,-0.008606,0.013611,0.000000,0.011719,0.035156,-0.011719
74107385000,0.999878,-0.008606,0.013611,0.000000,-0.027344,-0.003906,0.027344
74127412000,0.999878,-0.008606,0.013611,0.000000,0.011719,-0.003906,-0.011719
74147410000,0.999878,-0.008606,0.013611,0.000000,0.011719,-0.003906,-0.011719
74178864000,0.999878,-0.008606,0.013611,0.000000,0.011719,-0.003906,-0.011719
74186962000,0.999878,-0.008606,0.013611,0.000000,0.011719,-0.003906,-0.011719
74207008000,0.999878,-0.008606,0.013611,0.000000,-0.027344,0.035156,-0.011719
74227074000,0.999878,-0.008606,0.013611,0.000000,0.011719,-0.003906,-0.011719
74256458000,0.999878,-0.008606,0.013611,0.000000,-0.027344,0.035156,-0.011719
74266285000,0.999878,-0.008606,0.013611,0.000000,-0.027344,0.035156,-0.011719
74286669000,0.999878,-0.008606,0.013611,0.000000,0.011719,-0.003906,-0.011719
74306958000,0.999878,-0.008606,0.013611,0.000000,-0.027344,0.035156,0.027344
74327209000,0.999878,-0.008606,0.013611,0.000000,-0.027344,-0.003906,-0.011719
74350285000,0.999878,-0.008606,0.013611,0.000000,-0.027344,-0.003906,-0.011719
74366484000,0.999878,-0.008606,0.013611,0.000000,-0.027344,-0.003906,0.027344
74386468000,0.999878,-0.008606,0.013611,0.000000,-0.027344,-0.003906,-0.011719
74407239000,0.999878,-0.008606,0.013611,0.000000,0.011719,-0.003906,0.027344
74429946000,0.999878,-0.008606,0.013611,0.000000,-0.027344,-0.003906,0.027344
74445819000,0.999878,-0.008606,0.013611,0.000000,-0.027344,0.035156,0.027344
74466437000,0.999878,-0.008606,0.013611,0.000000,-0.027344,0.035156,-0.011719
74486505000,0.999878,-0.008606,0.013611,0.000000,-0.019531,0.035156,0.027344
74506655000,0.999878,-0.008606,0.013611,0.000000,-0.019531,-0.003906,-0.011719
74530348000,0.999878,-0.008606,0.013611,0.000000,0.019531,-0.003906,0.027344
74546224000,0.999878,-0.008606,0.013611,0.000000,0.019531,-0.003906,-0.011719
74565790000,0.999878,-0.008606,0.013611,0.000000,-0.019531,-0.003906,-0.011719
74587528000,0.999878,-0.008606,0.013611,0.000000,0.019531,0.035156,-0.011719
74615492000,0.999878,-0.008606,0.013611,0.000000,0.019531,0.035156,0.027344
74626059000,0.999878,-0.008606,0.013611,0.000000,0.019531,-0.003906,-0.011719
74645652000,0.999878,-0.008606,0.013611,0.000000,-0.019531,-0.003906,-0.011719
74665657000,0.999878,-0.008606,0.013611,0.000000,0.019531,-0.003906,-0.011719
74695246000,0.999878,-0.008606,0.013611,0.000000,0.011719,-0.003906,0.027344
74705193000,0.999878,-0.008606,0.013611,0.000000,-0.027344,-0.003906,0.027344
74725609000,0.999878,-0.008606,0.013611,0.000000,0.011719,0.035156,0.027344
74745744000,0.999878,-0.008606,0.013611,0.000000,0.011719,0.035156,-0.011719
74765975000,0.999878,-0.008606,0.013611,0.000000,0.011719,-0.003906,-0.011719
74795394000,0.999878,-0.008606,0.013611,0.000000,0.011719,-0.003906,-0.019531
74816654000,0.999878,-0.008606,0.013611,0.000000,0.011719,-0.003906,0.019531
74825281000,0.999878,-0.008606,0.013611,0.000000,0.011719,0.035156,0.019531
74845583000,0.999878,-0.008606,0.013611,0.000000,0.011719,0.035156,0.019531
74865116000,0.999878,-0.008606,0.013611,0.000000,-0.027344,-0.003906,0.019531
74885633000,0.999878,-0.008606,0.013611,0.000000,0.011719,-0.003906,-0.019531
74914712000,0.999878,-0.008606,0.013611,0.000000,-0.027344,-0.003906,-0.019531
74930558000,0.999878,-0.008606,0.013611,0.000000,-0.027344,0.035156,-0.019531
74945112000,0.999878,-0.008606,0.013611,0.000000,0.011719,0.035156,0.019531
74965064000,0.999878,-0.008606,0.013611,0.000000,0.011719,-0.011719,0.019531
74985314000,0.999878,-0.008606,0.013611,0.000000,0.011719,-0.011719,0.019531
75014376000,0.999878,-0.008606,0.013611,0.000000,-0.027344,-0.003906,-0.019531
75029133000,0.999878,-0.008606,0.013611,0.000000,0.011719,-0.003906,-0.019531
75044759000,0.999878,-0.008606,0.013611,0.000000,0.011719,-0.003906,-0.019531
75065152000,0.999878,-0.008606,0.013611,0.000000,-0.027344,-0.003906,-0.019531
75085012000,0.999878,-0.008606,0.013611,0.000000,-0.027344,-0.003906,0.019531
75106017000,0.999878,-0.008606,0.013611,0.000000,0.011719,-0.003906,-0.019531
75129956000,0.999878,-0.008606,0.013611,0.000000,-0.027344,0.035156,-0.019531
75144656000,0.999878,-0.008606,0.013611,0.000000,0.011719,-0.003906,0.019531
75164891000,0.999878,-0.008606,0.013611,0.000000,0.011719,-0.003906,-0.019531
75184999000,0.999878,-0.008606,0.013611,0.000000,-0.027344,-0.003906,0.019531
75213845000,0.999878,-0.008606,0.013611,0.000000,-0.027344,-0.003906,-0.019531
75224318000,0.999878,-0.008606,0.013611,0.000000,0.011719,0.035156,0.019531
75244782000,0.999878,-0.008606,0.013611,0.000000,0.011719,-0.003906,0.019531
75264932000,0.999878,-0.008606,0.013611,0.000000,-0.027344,0.035156,-0.019531
75293936000,0.999878,-0.008606,0.013611,0.000000,-0.027344,-0.003906,-0.019531
75313636000,0.999878,-0.008606,0.013611,0.000000,0.011719,-0.003906,0.019531
75323911000,0.999878,-0.008606,0.013611,0.000000,-0.027344,-0.003906,-0.019531
75344351000,0.999878,-0.008606,0.013611,0.000000,0.011719,-0.003906,-0.019531
75365085000,0.999878,-0.008606,0.013611,0.000000,0.011719,-0.003906,0.019531
75388800000,0.999878,-0.008606,0.013611,0.000000,0.011719,-0.003906,0.019531
75407113000,0.999878,-0.008606,0.013611,0.000000,0.011719,-0.003906,-0.019531
75424351000,0.999878,-0.008606,0.013611,0.000000,0.011719,-0.003906,-0.019531
75444895000,0.999878,-0.008606,0.013611,0.000000,-0.027344,0.035156,-0.019531
75472963000,0.999878,-0.008606,0.013611,0.000000,-0.027344,-0.003906,-0.011719
75483639000,0.999878,-0.008606,0.013611,0.000000,0.011719,-0.003906,-0.011719
75504746000,0.999878,-0.008606,0.013611,0.000000,-0.027344,-0.003906,-0.011719
75524435000,0.999878,-0.008667,0.013611,-0.000061,0.050781,0.070312,0.218750
75544524000,0.999878,-0.008667,0.013672,-0.000061,-0.027344,0.035156,-0.050781
75572808000,0.999878,-0.008667,0.013672,-0.000061,-0.027344,-0.003906,-0.011719
75583182000,0.999878,-0.008667,0.013672,-0.000061,-0.027344,-0.003906,0.027344
75604421000,0.999878,-0.008728,0.013672,-0.000061,0.011719,0.035156,0.027344
75624435000,0.999878,-0.008728,0.013733,-0.000061,0.011719,-0.003906,0.027344
75653148000,0.999878,-0.008728,0.013733,-0.000061,0.011719,-0.003906,0.027344
75668013000,0.999878,-0.008728,0.013672,-0.000061,0.011719,-0.003906,0.027344
75684372000,0.999878,-0.008728,0.013733,-0.000122,0.011719,-0.003906,-0.011719
75704366000,0.999878,-0.008789,0.013733,-0.000061,-0.027344,0.035156,0.027344
75732845000,0.999878,-0.008789,0.013733,-0.000122,0.011719,-0.003906,0.019531
75743811000,0.999878,-0.008789,0.013733,-0.000122,0.011719,-0.003906,-0.019531
75769331000,0.999878,-0.008789,0.013733,-0.000122,0.011719,-0.003906,-0.019531
75784070000,0.999878,-0.008728,0.013733,-0.000122,-0.027344,0.035156,0.019531
75812365000,0.999878,-0.008789,0.013733,-0.000122,-0.027344,-0.003906,0.019531
75823308000,0.999878,-0.008789,0.013733,-0.000122,0.011719,-0.003906,0.019531
75852375000,0.999878,-0.008728,0.013794,-0.000122,0.011719,-0.003906,-0.019531
75872342000,0.999878,-0.008728,0.013794,-0.000122,-0.027344,-0.003906,-0.019531
75892875000,0.999878,-0.008789,0.013855,-0.000122,0.011719,-0.003906,0.019531
75913695000,0.999878,-0.008728,0.013855,-0.000122,-0.027344,-0.003906,-0.019531
75923490000,0.999878,-0.008789,0.013855,-0.000122,0.011719,-0.003906,-0.019531
75952129000,0.999878,-0.008850,0.014099,-0.000122,0.019531,-0.003906,0.132812
75971854000,0.999878,-0.008423,0.014282,-0.000122,-0.085938,-0.156250,0.308594
75991664000,0.999878,-0.008301,0.014099,-0.000122,0.066406,0.062500,-0.304688
76003337000,0.999878,-0.008362,0.014038,-0.000122,-0.046875,0.062500,-0.417969
76031679000,0.999878,-0.008362,0.013977,-0.000122,0.019531,0.003906,-0.035156
76051680000,0.999878,-0.008362,0.013916,-0.000122,-0.019531,0.003906,-0.035156
76071906000,0.999878,-0.008423,0.013916,-0.000122,-0.019531,0.003906,0.003906
76091541000,0.999878,-0.008423,0.013855,-0.000122,-0.019531,0.003906,-0.042969
76112670000,0.999878,-0.008484,0.013855,-0.000122,-0.019531,0.003906,-0.042969
76135713000,0.999878,-0.008545,0.013794,-0.000122,-0.019531,0.003906,-0.042969
76151629000,0.999878,-0.008606,0.013733,-0.000122,-0.019531,0.042969,-0.042969
76171855000,0.999878,-0.008667,0.013672,-0.000122,-0.019531,0.003906,-0.042969
76191815000,0.999878,-0.008667,0.013672,-0.000122,-0.019531,0.003906,-0.003906
76215586000,0.999878,-0.008667,0.013672,-0.000122,-0.019531,0.003906,-0.003906
76231395000,0.999878,-0.008667,0.013672,-0.000122,0.019531,0.003906,-0.003906
76251272000,0.999878,-0.008667,0.013672,-0.000122,-0.019531,0.003906,-0.042969
76271364000,0.999878,-0.008667,0.013672,-0.000122,-0.019531,0.003906,-0.050781
76294738000,0.999878,-0.008667,0.013672,-0.000183,0.019531,0.003906,-0.050781
76311713000,0.999878,-0.008606,0.013672,-0.000122,-0.019531,0.042969,-0.011719
76331425000,0.999878,-0.008606,0.013672,-0.000122,-0.011719,-0.011719,0.042969
76351637000,0.999878,-0.008606,0.013672,-0.000122,-0.011719,-0.011719,0.042969
76373992000,0.999878,-0.008606,0.013672,-0.000122,0.027344,0.027344,0.003906
76391279000,0.999878,-0.008606,0.013672,-0.000183,-0.011719,-0.011719,0.042969
76410995000,0.999878,-0.008606,0.013672,-0.000183,-0.011719,0.027344,0.003906
76430654000,0.999878,-0.008606,0.013672,-0.000183,-0.011719,-0.011719,0.003906
76455279000,0.999878,-0.008667,0.013611,-0.000183,0.019531,0.027344,-0.003906
76470538000,0.999878,-0.008667,0.013550,-0.000183,-0.019531,-0.011719,-0.003906
76491150000,0.999878,-0.008667,0.013550,-0.000183,-0.019531,-0.011719,-0.003906
76510570000,0.999878,-0.008728,0.013428,-0.000183,0.019531,-0.011719,-0.003906
76531987000,0.999878,-0.008728,0.013428,-0.000183,-0.019531,-0.011719,-0.003906
76555251000,0.999878,-0.008789,0.013367,-0.000183,0.019531,-0.011719,0.035156
76570743000,0.999878,-0.008789,0.013306,-0.000122,0.019531,-0.011719,0.070312
76590789000,0.999878,-0.008850,0.013245,-0.000122,-0.019531,-0.003906,-0.003906
76610760000,0.999878,-0.008850,0.013245,-0.000122,-0.027344,-0.003906,0.035156
76630472000,0.999878,-0.008850,0.013184,-0.000122,0.011719,-0.003906,0.035156
76650632000,0.999878,-0.008789,0.013184,-0.000122,-0.027344,-0.003906,0.035156
76670064000,0.999878,-0.008789,0.013184,-0.000122,-0.027344,-0.003906,-0.011719
76690369000,0.999878,-0.008789,0.013184,-0.000183,0.011719,-0.003906,-0.011719
76710265000,0.999878,-0.008789,0.013245,-0.000183,0.011719,-0.003906,0.027344
76734797000,0.999878,-0.008789,0.013245,-0.000183,0.011719,0.035156,0.027344
76750588000,0.999878,-0.008789,0.013245,-0.000183,0.011719,-0.003906,-0.011719
76770075000,0.999878,-0.008789,0.013245,-0.000183,0.011719,-0.003906,0.027344
76789997000,0.999878,-0.008789,0.013184,-0.000183,0.050781,-0.003906,-0.011719
76815093000,0.999878,-0.008850,0.013184,-0.000183,0.003906,-0.003906,-0.011719
76829925000,0.999878,-0.008850,0.013184,-0.000183,0.003906,-0.003906,0.027344
76849407000,0.999878,-0.008850,0.013184,-0.000183,0.003906,-0.003906,0.027344
76873300000,0.999878,-0.008850,0.013184,-0.000183,0.003906,-0.003906,-0.011719
76889848000,0.999878,-0.008850,0.013245,-0.000183,-0.035156,-0.003906,-0.011719
76910032000,0.999878,-0.008850,0.013245,-0.000183,-0.035156,-0.042969,0.027344
76929944000,0.999878,-0.008789,0.013245,-0.000183,-0.035156,-0.003906,0.027344
76950319000,0.999878,-0.008789,0.013245,-0.000183,0.003906,0.035156,0.027344
76972682000,0.999878,-0.008789,0.013245,-0.000183,0.003906,-0.003906,0.027344
76994446000,0.999878,-0.008789,0.013245,-0.000183,0.003906,-0.003906,0.027344
77009555000,0.999878,-0.008728,0.013245,-0.000183,0.003906,-0.003906,-0.011719
77029011000,0.999878,-0.008728,0.013245,-0.000183,-0.035156,0.003906,-0.011719
77054158000,0.999878,-0.008728,0.013306,-0.000183,0.003906,-0.003906,-0.011719
77068909000,0.999878,-0.008728,0.013306,-0.000183,0.011719,-0.003906,-0.011719
77089053000,0.999878,-0.008667,0.013306,-0.000183,0.011719,-0.003906,0.027344
77109312000,0.999878,-0.008667,0.013367,-0.000183,0.011719,-0.003906,-0.011719
77129503000,0.999878,-0.008667,0.013367,-0.000183,-0.027344,-0.003906,0.027344
77152170000,0.999878,-0.008667,0.013428,-0.000183,0.011719,0.035156,0.027344
77168929000,0.999878,-0.008667,0.013428,-0.000183,0.011719,-0.003906,0.027344
77188570000,0.999878,-0.008667,0.013428,-0.000183,-0.027344,-0.003906,0.027344
77211575000,0.999878,-0.008667,0.013428,-0.000183,0.011719,-0.003906,0.027344
77228379000,0.999878,-0.008667,0.013428,-0.000122,0.011719,-0.003906,0.027344
77250283000,0.999878,-0.008728,0.013428,-0.000122,0.011719,-0.003906,0.027344
77268440000,0.999878,-0.008728,0.013428,-0.000122,0.011719,-0.003906,0.027344
77289259000,0.999878,-0.008728,0.013428,-0.000122,0.011719,0.035156,0.027344
77312248000,0.999878,-0.008728,0.013428,-0.000122,-0.027344,-0.003906,0.027344
77333082000,0.999878,-0.008728,0.013428,-0.000122,0.011719,-0.003906,0.027344
77348084000,0.999878,-0.008728,0.013489,-0.000122,0.011719,-0.003906,0.027344
77368116000,0.999878,-0.008667,0.013489,-0.000122,-0.027344,-0.003906,0.027344
77388028000,0.999878,-0.008667,0.013489,-0.000061,-0.027344,-0.003906,-0.011719
77407905000,0.999878,-0.008667,0.013489,-0.000061,0.011719,-0.003906,0.027344
77438907000,0.999878,-0.008728,0.013489,-0.000061,0.011719,-0.003906,-0.011719
77454197000,0.999878,-0.008728,0.013489,-0.000061,0.011719,0.035156,0.027344
77468143000,0.999878,-0.008728,0.013489,-0.000061,0.011719,-0.003906,-0.011719
77488000000,0.999878,-0.008728,0.013489,-0.000061,0.011719,-0.003906,-0.011719
77509141000,0.999878,-0.008728,0.013489,-0.000061,0.011719,-0.003906,-0.011719
77537747000,0.999878,-0.008728,0.013489,-0.000061,0.011719,0.035156,-0.011719
77551973000,0.999878,-0.008728,0.013489,-0.000061,-0.027344,-0.003906,0.027344
77567758000,0.999878,-0.008728,0.013489,-0.000061,0.011719,-0.003906,-0.011719
77588251000,0.999878,-0.008728,0.013489,-0.000061,0.011719,-0.003906,0.027344
77607606000,0.999878,-0.008728,0.013489,-0.000061,0.011719,-0.003906,0.027344
77637610000,0.999878,-0.008667,0.013489,-0.000122,-0.035156,-0.003906,-0.011719
77647656000,0.999878,-0.008667,0.013489,-0.000122,0.003906,0.035156,-0.011719
77667449000,0.999878,-0.008667,0.013489,-0.000122,-0.027344,-0.003906,-0.011719
77688188000,0.999878,-0.008667,0.013489,-0.000122,0.011719,-0.003906,0.027344
77717368000,0.999878,-0.008606,0.013550,-0.000122,0.011719,-0.003906,-0.011719
77727822000,0.999878,-0.008667,0.013489,-0.000122,0.011719,-0.003906,-0.011719
77747736000,0.999878,-0.008667,0.013550,-0.000122,0.011719,-0.003906,-0.011719
77767456000,0.999878,-0.008606,0.013550,-0.000122,0.011719,-0.003906,-0.011719
77791665000,0.999878,-0.008667,0.013550,-0.000122,-0.027344,-0.003906,0.027344
77807928000,0.999878,-0.008606,0.013550,-0.000122,0.011719,0.035156,-0.011719
77826979000,0.999878,-0.008606,0.013550,-0.000122,0.011719,-0.003906,-0.011719
77847290000,0.999878,-0.008667,0.013550,-0.000122,0.011719,-0.003906,0.035156
77877091000,0.999878,-0.008667,0.013550,-0.000122,-0.027344,-0.003906,0.035156
77886804000,0.999878,-0.008606,0.013550,-0.000122,0.011719,-0.003906,0.035156
77907504000,0.999878,-0.008667,0.013550,-0.000122,0.011719,-0.003906,-0.003906
77936950000,0.999878,-0.008667,0.013550,-0.000122,-0.027344,-0.003906,0.035156
77953056000,0.999878,-0.008667,0.013550,-0.000122,0.011719,-0.003906,0.035156
77968001000,0.999878,-0.008728,0.013550,-0.000122,-0.027344,-0.003906,-0.003906
77986491000,0.999878,-0.008667,0.013550,-0.000122,-0.027344,-0.003906,0.027344
78007081000,0.999878,-0.008667,0.013489,-0.000122,-0.027344,0.035156,0.027344
78036607000,0.999878,-0.008667,0.013489,-0.000122,-0.027344,-0.003906,-0.011719
78046133000,0.999878,-0.008667,0.013489,-0.000122,0.011719,-0.003906,-0.011719
78070236000,0.999878,-0.008667,0.013489,-0.000183,0.011719,-0.003906,0.027344
78086560000,0.999878,-0.008667,0.013489,-0.000183,0.011719,-0.003906,-0.011719
78116115000,0.999878,-0.008667,0.013489,-0.000183,-0.027344,-0.003906,0.027344
78125972000,0.999878,-0.008667,0.013489,-0.000183,-0.027344,-0.003906,0.027344
78146438000,0.999878,-0.008667,0.013489,-0.000183,0.011719,0.035156,-0.011719
78166378000,0.999878,-0.008667,0.013489,-0.000183,0.011719,0.035156,0.027344
78196058000,0.999878,-0.008667,0.013489,-0.000183,0.011719,-0.003906,-0.011719
78212869000,0.999878,-0.008667,0.013489,-0.000183,0.011719,-0.003906,-0.011719
78226286000,0.999878,-0.008667,0.013489,-0.000183,-0.027344,-0.003906,-0.011719
78246158000,0.999878,-0.008667,0.013489,-0.000183,-0.027344,-0.003906,0.062500
78275280000,0.999878,-0.008667,0.013489,-0.000183,-0.027344,-0.003906,-0.011719
78292912000,0.999878,-0.008606,0.013428,-0.000183,0.011719,-0.003906,-0.011719
78305550000,0.999878,-0.008606,0.013489,-0.000183,-0.027344,-0.003906,-0.011719
78326526000,0.999878,-0.008606,0.013489,-0.000183,-0.027344,-0.003906,-0.011719
78346496000,0.999878,-0.008545,0.013489,-0.000183,0.011719,-0.003906,0.027344
78379050000,0.999878,-0.008545,0.013428,-0.000183,0.011719,-0.003906,-0.011719
78385298000,0.999878,-0.008606,0.013428,-0.000183,0.011719,-0.003906,0.027344
78405893000,0.999878,-0.008606,0.013428,-0.000183,-0.027344,-0.003906,-0.011719
78427149000,0.999878,-0.008606,0.013428,-0.000183,-0.027344,0.003906,-0.011719
78449747000,0.999878,-0.008606,0.013428,-0.000183,-0.027344,0.003906,-0.011719
78465644000,0.999878,-0.008606,0.013428,-0.000183,0.050781,0.003906,-0.011719
78485686000,0.999878,-0.008606,0.013428,-0.000183,-0.027344,0.003906,-0.011719
78516195000,0.999878,-0.008606,0.013428,-0.000183,-0.027344,0.003906,-0.003906
78530401000,0.999878,-0.008606,0.013428,-0.000183,0.011719,0.003906,-0.003906
78545571000,0.999878,-0.008606,0.013428,-0.000183,-0.027344,0.003906,-0.003906
78565531000,0.999878,-0.008667,0.013428,-0.000183,-0.027344,0.003906,-0.003906
78595592000,0.999878,-0.008606,0.013428,-0.000183,0.011719,0.003906,0.035156
78604416000,0.999878,-0.008667,0.013428,-0.000183,-0.027344,0.003906,0.035156
78625566000,0.999878,-0.008667,0.013428,-0.000183,0.011719,0.003906,-0.003906
78645447000,0.999878,-0.008667,0.013428,-0.000183,-0.027344,0.042969,-0.003906
78674911000,0.999878,-0.008667,0.013428,-0.000183,0.011719,0.003906,-0.003906
78694887000,0.999878,-0.008667,0.013428,-0.000183,-0.027344,0.003906,-0.003906
78704885000,0.999878,-0.008667,0.013367,-0.000183,-0.027344,-0.003906,-0.003906
78725205000,0.999878,-0.008606,0.013367,-0.000183,0.011719,0.035156,0.035156
78751086000,0.999878,-0.008606,0.013367,-0.000183,0.011719,-0.003906,-0.003906
78764992000,0.999878,-0.008606,0.013367,-0.000183,-0.027344,-0.003906,-0.003906
78794457000,0.999878,-0.008606,0.013367,-0.000183,-0.027344,-0.003906,-0.003906
78814549000,0.999878,-0.008667,0.013367,-0.000183,0.011719,-0.003906,0.035156
78830907000,0.999878,-0.008606,0.013367,-0.000183,-0.027344,-0.003906,0.035156
78844762000,0.999878,-0.008606,0.013367,-0.000183,0.011719,-0.003906,0.027344
78865214000,0.999878,-0.008667,0.013367,-0.000183,0.011719,-0.003906,0.027344
78887877000,0.999878,-0.008606,0.013367,-0.000244,0.011719,0.035156,0.027344
78917513000,0.999878,-0.008667,0.013428,-0.000183,0.011719,-0.003906,-0.011719
78924479000,0.999878,-0.008667,0.013428,-0.000183,-0.027344,-0.003906,0.027344
78946145000,0.999878,-0.008667,0.013428,-0.000183,-0.027344,-0.003906,-0.011719
78970896000,0.999878,-0.008667,0.013367,-0.000183,0.011719,-0.003906,0.027344
78998473000,0.999878,-0.008667,0.013367,-0.000183,-0.027344,-0.003906,-0.011719
79004894000,0.999878,-0.008667,0.013367,-0.000183,-0.027344,-0.003906,0.027344
79033574000,0.999878,-0.008667,0.013367,-0.000183,-0.027344,-0.003906,-0.011719
79043807000,0.999878,-0.008667,0.013367,-0.000183,-0.027344,-0.003906,-0.011719
79064592000,0.999878,-0.008667,0.013367,-0.000183,-0.027344,-0.003906,-0.011719
79084614000,0.999878,-0.008667,0.013367,-0.000183,0.019531,0.035156,-0.011719
79113882000,0.999878,-0.008606,0.013367,-0.000183,-0.019531,-0.003906,-0.011719
79129620000,0.999878,-0.008606,0.013367,-0.000183,-0.019531,-0.003906,-0.011719
79144544000,0.999878,-0.008606,0.013367,-0.000183,-0.019531,-0.003906,0.027344
79173215000,0.999878,-0.008606,0.013367,-0.000183,-0.019531,-0.003906,-0.011719
79183532000,0.999878,-0.008606,0.013306,-0.000183,0.019531,-0.003906,0.027344
79213489000,0.999878,-0.008606,0.013306,-0.000183,-0.019531,-0.003906,0.027344
79233902000,0.999878,-0.008606,0.013306,-0.000244,0.019531,-0.003906,-0.011719
79252968000,0.999878,-0.008606,0.013367,-0.000244,-0.019531,-0.003906,-0.011719
79263287000,0.999878,-0.008606,0.013367,-0.000244,-0.019531,-0.003906,-0.011719
79284597000,0.999878,-0.008545,0.013367,-0.000244,0.019531,-0.003906,0.027344
79313141000,0.999878,-0.008545,0.013367,-0.000183,0.019531,-0.003906,-0.011719
79329524000,0.999878,-0.008545,0.013367,-0.000183,0.019531,-0.003906,-0.011719
79344419000,0.999878,-0.008545,0.013367,-0.000183,-0.019531,-0.003906,-0.011719
79364638000,0.999878,-0.008606,0.013367,-0.000183,-0.019531,-0.003906,-0.011719
79385045000,0.999878,-0.008545,0.013367,-0.000183,-0.019531,0.003906,0.027344
79413711000,0.999878,-0.008545,0.013367,-0.000183,0.019531,-0.003906,-0.011719
79433041000,0.999878,-0.008484,0.013367,-0.000244,-0.019531,-0.003906,-0.011719
79443189000,0.999878,-0.008545,0.013367,-0.000244,-0.019531,-0.003906,0.027344
79479268000,0.999878,-0.008545,0.013367,-0.000244,-0.019531,-0.035156,0.027344
79493098000,0.999878,-0.008484,0.013367,-0.000244,-0.054688,-0.035156,-0.011719
79514591000,0.999878,-0.008545,0.013367,-0.000244,-0.019531,0.003906,-0.050781
79523339000,0.999878,-0.008545,0.013367,-0.000244,0.019531,0.042969,0.027344
79552122000,0.999878,-0.008545,0.013367,-0.000244,-0.019531,-0.003906,-0.011719
79572784000,0.999878,-0.008545,0.013367,-0.000244,0.019531,-0.003906,-0.011719
79595846000,0.999878,-0.008545,0.013367,-0.000244,0.019531,-0.003906,0.027344
79612634000,0.999878,-0.008545,0.013367,-0.000244,-0.019531,-0.003906,0.027344
79631943000,0.999878,-0.008545,0.013367,-0.000244,-0.019531,0.035156,-0.011719
79651917000,0.999878,-0.008545,0.013367,-0.000244,-0.019531,-0.003906,0.027344
79675969000,0.999878,-0.008545,0.013367,-0.000244,0.019531,-0.003906,-0.011719
79692340000,0.999878,-0.008545,0.013367,-0.000244,-0.019531,-0.003906,-0.011719
79712064000,0.999878,-0.008545,0.013367,-0.000244,-0.019531,-0.003906,0.027344
79731764000,0.999878,-0.008545,0.013367,-0.000244,0.019531,0.035156,-0.011719
79752102000,0.999878,-0.008545,0.013367,-0.000244,0.019531,0.035156,0.027344
79776832000,0.999878,-0.008545,0.013367,-0.000244,-0.019531,-0.003906,-0.011719
79792042000,0.999878,-0.008545,0.013367,-0.000244,0.019531,-0.003906,-0.011719
79811581000,0.999878,-0.008545,0.013367,-0.000244,0.011719,-0.003906,0.027344
79831917000,0.999878,-0.008545,0.013367,-0.000244,-0.027344,-0.003906,-0.011719
79856384000,0.999878,-0.008545,0.013367,-0.000244,0.011719,-0.003906,-0.011719
79871514000,0.999878,-0.008545,0.013367,-0.000244,-0.027344,0.035156,-0.011719
79891733000,0.999878,-0.008545,0.013367,-0.000244,0.011719,-0.003906,-0.011719
79912994000,0.999878,-0.008545,0.013367,-0.000244,-0.019531,0.035156,-0.011719
79931470000,0.999878,-0.008545,0.013367,-0.000244,0.019531,-0.003906,-0.011719
79951265000,0.999878,-0.008545,0.013367,-0.000244,-0.027344,-0.003906,-0.011719
79976700000,0.999878,-0.008545,0.013367,-0.000244,0.011719,-0.003906,-0.011719
79990990000,0.999878,-0.008545,0.013367,-0.000244,-0.027344,-0.003906,0.027344
80011569000,0.999878,-0.008545,0.013367,-0.000244,0.011719,-0.003906,-0.011719
80034789000,0.999878,-0.008545,0.013367,-0.000244,-0.019531,-0.003906,-0.011719
80052338000,0.999878,-0.008545,0.013367,-0.000244,0.019531,0.035156,-0.011719
80071290000,0.999878,-0.008545,0.013367,-0.000244,0.019531,-0.003906,-0.011719
80091558000,0.999878,-0.008545,0.013367,-0.000244,0.011719,-0.003906,0.027344
80114008000,0.999878,-0.008545,0.013367,-0.000244,-0.027344,-0.003906,-0.011719
80131163000,0.999878,-0.008545,0.013367,-0.000244,0.011719,-0.003906,0.027344
80150707000,0.999878,-0.008545,0.013367,-0.000244,0.011719,0.035156,-0.011719
80171035000,0.999878,-0.008545,0.013367,-0.000244,0.011719,0.035156,0.027344
80195461000,0.999878,-0.008545,0.013367,-0.000244,-0.027344,-0.003906,-0.011719
80210948000,0.999878,-0.008545,0.013367,-0.000244,0.011719,-0.003906,0.027344
80230722000,0.999878,-0.008545,0.013367,-0.000244,0.011719,-0.003906,-0.011719
80250892000,0.999878,-0.008545,0.013367,-0.000244,0.011719,0.035156,-0.011719
80272594000,0.999878,-0.008545,0.013367,-0.000244,-0.027344,-0.003906,-0.011719
80290011000,0.999878,-0.008545,0.013367,-0.000244,-0.027344,-0.003906,-0.011719
80311001000,0.999878,-0.008545,0.013367,-0.000244,-0.027344,-0.003906,-0.011719
80331136000,0.999878,-0.008545,0.013367,-0.000244,-0.027344,-0.003906,-0.011719
80350466000,0.999878,-0.008545,0.013367,-0.000244,-0.027344,-0.003906,0.027344
80369988000,0.999878,-0.008545,0.013367,-0.000244,0.011719,0.035156,-0.011719
80390871000,0.999878,-0.008545,0.013367,-0.000244,0.011719,-0.003906,-0.011719
80412903000,0.999878,-0.008545,0.013367,-0.000244,0.011719,-0.003906,0.027344
80430220000,0.999878,-0.008545,0.013367,-0.000244,0.011719,-0.003906,0.027344
80449787000,0.999878,-0.008545,0.013367,-0.000244,0.011719,0.035156,0.027344
80470394000,0.999878,-0.008545,0.013367,-0.000244,0.011719,-0.003906,0.027344
80489886000,0.999878,-0.008545,0.013367,-0.000244,-0.027344,-0.003906,-0.011719
80514633000,0.999878,-0.008545,0.013367,-0.000244,0.011719,-0.003906,-0.011719
80529663000,0.999878,-0.008545,0.013367,-0.000244,-0.027344,-0.003906,-0.011719
80550304000,0.999878,-0.008545,0.013367,-0.000244,0.011719,-0.003906,-0.011719
80569521000,0.999878,-0.008545,0.013367,-0.000244,0.011719,0.035156,0.027344
80592790000,0.999878,-0.008545,0.013367,-0.000244,-0.027344,-0.003906,-0.011719
80609176000,0.999878,-0.008545,0.013367,-0.000244,0.011719,0.035156,-0.011719
80629546000,0.999878,-0.008545,0.013367,-0.000244,-0.027344,0.035156,0.027344
80649478000,0.999878,-0.008545,0.013367,-0.000244,-0.027344,-0.003906,-0.011719
80669378000,0.999878,-0.008545,0.013367,-0.000244,-0.027344,0.035156,-0.011719
80692371000,0.999878,-0.008545,0.013367,-0.000244,-0.027344,-0.003906,0.027344
80708935000,0.999878,-0.008545,0.013367,-0.000244,0.011719,-0.003906,0.027344
80732135000,0.999878,-0.008545,0.013367,-0.000244,0.011719,-0.003906,0.019531
80749273000,0.999878,-0.008545,0.013367,-0.000244,-0.027344,0.035156,-0.019531
80778557000,0.999878,-0.008545,0.013367,-0.000244,0.011719,-0.003906,-0.019531
80789099000,0.999878,-0.008545,0.013367,-0.000244,0.011719,-0.003906,-0.019531
80809392000,0.999878,-0.008545,0.013367,-0.000244,-0.019531,-0.003906,-0.019531
80838848000,0.999878,-0.008545,0.013367,-0.000244,0.019531,-0.003906,0.019531
80848995000,0.999878,-0.008545,0.013367,-0.000244,0.019531,-0.003906,-0.019531
80868460000,0.999878,-0.008545,0.013367,-0.000244,-0.019531,-0.003906,-0.019531
80888412000,0.999878,-0.008545,0.013367,-0.000244,-0.019531,-0.003906,0.019531
80920088000,0.999878,-0.008545,0.013367,-0.000244,-0.019531,0.035156,0.019531
80933133000,0.999878,-0.008545,0.013367,-0.000244,-0.019531,-0.003906,-0.019531
80948118000,0.999878,-0.008545,0.013367,-0.000244,-0.019531,-0.003906,0.019531
80968196000,0.999878,-0.008545,0.013367,-0.000244,0.019531,-0.003906,0.019531
80991511000,0.999878,-0.008545,0.013367,-0.000244,0.019531,-0.003906,-0.019531
81008119000,0.999878,-0.008545,0.013367,-0.000244,0.019531,-0.003906,-0.019531
81028587000,0.999878,-0.008545,0.013367,-0.000244,-0.019531,-0.003906,-0.019531
81048586000,0.999878,-0.008545,0.013367,-0.000244,0.019531,0.035156,0.019531
81072506000,0.999878,-0.008545,0.013367,-0.000244,-0.019531,-0.003906,0.019531
81088367000,0.999878,-0.008545,0.013367,-0.000244,0.019531,-0.003906,-0.019531
81108312000,0.999878,-0.008545,0.013367,-0.000244,0.019531,0.035156,-0.019531
81128785000,0.999878,-0.008545,0.013367,-0.000244,0.011719,-0.003906,0.019531
81153275000,0.999878,-0.008545,0.013367,-0.000244,-0.027344,-0.003906,-0.019531
81167566000,0.999878,-0.008545,0.013367,-0.000244,0.011719,-0.003906,-0.019531
81187881000,0.999878,-0.008545,0.013367,-0.000244,0.011719,-0.003906,-0.019531
81208637000,0.999878,-0.008545,0.013367,-0.000244,0.011719,-0.003906,-0.019531
81234054000,0.999878,-0.008545,0.013367,-0.000244,0.011719,-0.003906,0.019531
81248307000,0.999878,-0.008545,0.013367,-0.000244,0.011719,-0.003906,0.019531
81268081000,0.999878,-0.008545,0.013367,-0.000244,-0.027344,-0.003906,-0.019531
81290165000,0.999878,-0.008545,0.013367,-0.000244,-0.027344,-0.003906,0.019531
81314425000,0.999878,-0.008545,0.013367,-0.000244,0.011719,0.035156,-0.019531
81328045000,0.999878,-0.008545,0.013367,-0.000244,0.011719,-0.003906,-0.019531
81347960000,0.999878,-0.008545,0.013367,-0.000244,-0.027344,-0.003906,-0.011719
81368247000,0.999878,-0.008545,0.013367,-0.000244,0.011719,-0.003906,0.027344
81387157000,0.999878,-0.008545,0.013367,-0.000244,-0.027344,-0.003906,-0.011719
81408070000,0.999878,-0.008545,0.013367,-0.000244,0.011719,-0.003906,-0.011719
81438598000,0.999878,-0.008545,0.013367,-0.000244,-0.027344,-0.003906,-0.011719
81448457000,0.999878,-0.008545,0.013367,-0.000244,-0.027344,-0.003906,-0.011719
81466816000,0.999878,-0.008545,0.013367,-0.000244,0.011719,-0.003906,-0.011719
81487431000,0.999878,-0.008545,0.013367,-0.000244,0.011719,-0.003906,0.027344
81517431000,0.999878,-0.008545,0.013367,-0.000244,0.011719,-0.003906,0.027344
81526738000,0.999878,-0.008545,0.013367,-0.000244,0.011719,-0.003906,0.027344
81546819000,0.999878,-0.008545,0.013367,-0.000244,-0.027344,-0.003906,-0.011719
81566566000,0.999878,-0.008545,0.013367,-0.000244,-0.027344,-0.003906,0.027344
81587961000,0.999878,-0.008545,0.013367,-0.000244,-0.027344,-0.003906,0.027344
81611990000,0.999878,-0.008545,0.013367,-0.000244,0.011719,0.035156,-0.011719
81626613000,0.999878,-0.008545,0.013367,-0.000244,-0.027344,-0.003906,-0.011719
81646321000,0.999878,-0.008545,0.013367,-0.000244,0.011719,-0.003906,-0.011719
81667568000,0.999878,-0.008545,0.013367,-0.000244,-0.027344,0.035156,-0.011719
81693135000,0.999878,-0.008545,0.013367,-0.000244,-0.027344,-0.003906,-0.011719
81706303000,0.999878,-0.008545,0.013367,-0.000244,-0.027344,-0.003906,-0.011719
81726894000,0.999878,-0.008545,0.013367,-0.000244,0.011719,-0.003906,-0.011719
81746895000,0.999878,-0.008545,0.013367,-0.000244,0.011719,-0.003906,-0.011719
81776059000,0.999878,-0.008545,0.013367,-0.000244,-0.027344,-0.003906,0.027344
81786312000,0.999878,-0.008545,0.013367,-0.000244,0.011719,0.035156,0.027344
81806184000,0.999878,-0.008545,0.013367,-0.000244,0.011719,0.035156,0.027344
81835701000,0.999878,-0.008545,0.013367,-0.000244,-0.027344,0.035156,0.027344
81845796000,0.999878,-0.008545,0.013367,-0.000244,-0.027344,0.035156,0.027344
81865818000,0.999878,-0.008545,0.013367,-0.000244,0.011719,0.035156,-0.011719
81886482000,0.999878,-0.008545,0.013367,-0.000244,-0.027344,0.035156,-0.011719
81908166000,0.999878,-0.008545,0.013367,-0.000244,-0.027344,-0.003906,-0.011719
81932266000,0.999878,-0.008545,0.013367,-0.000244,-0.019531,0.035156,0.027344
81945750000,0.999878,-0.008545,0.013367,-0.000244,0.019531,-0.011719,-0.011719
81966339000,0.999878,-0.008545,0.013367,-0.000244,0.019531,-0.011719,0.027344
81995405000,0.999878,-0.008545,0.013367,-0.000244,0.019531,-0.011719,0.019531
82006145000,0.999878,-0.008545,0.013367,-0.000244,-0.019531,0.027344,-0.019531
82025517000,0.999878,-0.008545,0.013367,-0.000244,-0.019531,-0.011719,-0.019531
82047922000,0.999878,-0.008545,0.013367,-0.000244,0.019531,-0.003906,0.019531
82065732000,0.999878,-0.008545,0.013367,-0.000244,0.019531,-0.003906,-0.019531
82086231000,0.999878,-0.008545,0.013367,-0.000244,-0.019531,-0.003906,0.027344
82106538000,0.999878,-0.008545,0.013367,-0.000244,-0.019531,-0.003906,-0.011719
82130897000,0.999878,-0.008545,0.013306,-0.000244,0.019531,0.035156,0.027344
82145500000,0.999878,-0.008606,0.013367,-0.000244,-0.019531,0.035156,0.027344
82175666000,0.999878,-0.008606,0.013367,-0.000244,0.019531,-0.003906,-0.011719
82189525000,0.999878,-0.008606,0.013367,-0.000244,0.019531,-0.003906,0.027344
82205433000,0.999878,-0.008606,0.013367,-0.000244,-0.019531,-0.003906,-0.011719
82226010000,0.999878,-0.008606,0.013428,-0.000244,-0.019531,-0.003906,-0.011719
82245224000,0.999878,-0.008545,0.013428,-0.000244,0.019531,-0.003906,0.027344
82275086000,0.999878,-0.008545,0.013367,-0.000244,0.019531,0.035156,0.027344
82285022000,0.999878,-0.008545,0.013367,-0.000244,-0.019531,-0.042969,-0.011719
82305703000,0.999878,-0.008484,0.013367,-0.000244,0.019531,-0.003906,-0.011719
82325626000,0.999878,-0.008484,0.013428,-0.000244,0.019531,-0.003906,-0.011719
82355070000,0.999878,-0.008423,0.013428,-0.000244,0.019531,0.035156,-0.011719
82364932000,0.999878,-0.008423,0.013428,-0.000244,-0.027344,-0.003906,-0.011719
82385552000,0.999878,-0.008423,0.013428,-0.000244,-0.027344,0.035156,-0.050781
82406021000,0.999878,-0.008362,0.013428,-0.000244,0.011719,-0.003906,0.027344
82435052000,0.999878,-0.008423,0.013428,-0.000244,-0.027344,-0.003906,-0.011719
82444759000,0.999878,-0.008423,0.013428,-0.000244,-0.027344,-0.003906,-0.011719
82465829000,0.999878,-0.008423,0.013428,-0.000244,-0.027344,-0.003906,0.027344
82485154000,0.999878,-0.008423,0.013428,-0.000244,0.011719,-0.003906,-0.011719
82514869000,0.999878,-0.008423,0.013367,-0.000244,-0.027344,-0.003906,-0.011719
82524832000,0.999878,-0.008362,0.013367,-0.000244,-0.027344,-0.003906,-0.011719
82544991000,0.999878,-0.008423,0.013367,-0.000244,0.019531,-0.003906,-0.011719
82565038000,0.999878,-0.008423,0.013367,-0.000305,0.019531,-0.003906,0.027344
82594753000,0.999878,-0.008423,0.013367,-0.000244,-0.019531,-0.042969,-0.011719
82604630000,0.999878,-0.008423,0.013367,-0.000244,-0.019531,0.035156,-0.050781
82633821000,0.999878,-0.008484,0.013367,-0.000244,-0.054688,-0.003906,-0.011719
82644450000,0.999878,-0.008484,0.013367,-0.000244,0.058594,-0.042969,0.027344
82665176000,0.999878,-0.008423,0.013428,-0.000244,0.058594,-0.003906,0.062500
82686563000,0.999878,-0.008301,0.013489,-0.000061,-0.054688,-0.042969,-0.128906
82714419000,0.999878,-0.008484,0.013306,0.000488,0.433594,-0.339844,-0.050781
82724348000,0.999878,-0.008423,0.013306,0.001221,0.546875,-0.562500,0.062500
82745005000,0.999878,-0.008301,0.013184,0.002747,-0.339844,0.210938,-0.011719
82764655000,0.999878,-0.008362,0.013123,0.002930,-0.457031,0.593750,-0.050781
82793378000,0.999878,-0.008423,0.013123,0.002930,-0.027344,0.050781,-0.003906
82803219000,0.999878,-0.008484,0.013123,0.002991,0.011719,-0.027344,-0.003906
82824610000,0.999878,-0.008545,0.013123,0.003601,0.281250,-0.179688,-0.003906
82844438000,0.999878,-0.008789,0.013000,0.004761,0.546875,-0.250000,0.035156
82873382000,0.999878,-0.009399,0.012939,0.006775,-0.101562,-0.011719,0.109375
82884036000,0.999817,-0.009583,0.012878,0.007385,-0.253906,0.339844,0.035156
82904813000,0.999817,-0.009888,0.012939,0.008118,0.089844,0.042969,0.035156
82924688000,0.999817,-0.010376,0.013000,0.008423,0.050781,0.050781,0.035156
82953055000,0.999817,-0.011169,0.013184,0.008972,0.210938,0.027344,-0.195312
82970064000,0.999817,-0.011414,0.013184,0.009277,-0.093750,-0.203125,0.070312
82987480000,0.999817,-0.011841,0.013306,0.009949,-0.125000,0.148438,-0.121094
83004593000,0.999756,-0.012329,0.013306,0.010742,0.105469,-0.109375,0.109375
83024832000,0.999756,-0.012695,0.013367,0.011475,0.144531,-0.062500,-0.003906
83053315000,0.999756,-0.013489,0.013550,0.012634,0.152344,-0.085938,0.187500
83069471000,0.999756,-0.013611,0.013672,0.013062,0.035156,-0.003906,-0.195312
83084483000,0.999695,-0.014038,0.013672,0.013855,-0.195312,0.187500,0.035156
83113326000,0.999695,-0.014526,0.013855,0.015564,-0.222656,0.128906,-0.121094
83132595000,0.999634,-0.014771,0.013855,0.016541,0.234375,0.175781,0.078125
83143403000,0.999634,-0.014893,0.013916,0.016968,0.195312,0.097656,0.308594
83164589000,0.999634,-0.014893,0.013916,0.017761,0.160156,-0.093750,-0.035156
83192544000,0.999634,-0.014954,0.013855,0.018127,0.082031,0.175781,-0.074219
83203287000,0.999634,-0.015076,0.013794,0.018066,0.234375,-0.132812,0.003906
83232458000,0.999634,-0.015625,0.014038,0.017761,0.160156,0.183594,0.308594
83252214000,0.999634,-0.016418,0.015442,0.016846,-2.015625,0.648438,1.074219
83272523000,0.999573,-0.016785,0.016602,0.015991,-0.031250,0.207031,-0.152344
83283854000,0.999573,-0.016785,0.017639,0.015747,0.597656,0.042969,0.195312
83312359000,0.999512,-0.016479,0.020630,0.016602,1.035156,0.007812,-0.417969
83332009000,0.999512,-0.015808,0.019775,0.018372,1.250000,-0.191406,-1.492188
83352355000,0.999451,-0.015808,0.019531,0.020325,-1.273438,-0.093750,0.691406
83378775000,0.999451,-0.015686,0.018921,0.021851,-0.773438,0.027344,-0.226562
83395162000,0.999512,-0.015747,0.016846,0.022339,0.046875,0.257812,-0.839844
83411730000,0.999512,-0.015503,0.015808,0.021729,-1.425781,0.289062,3.105469
83431860000,0.999573,-0.015564,0.015381,0.020691,0.066406,0.183594,0.195312
83456168000,0.999573,-0.015442,0.015137,0.019470,-0.054688,0.175781,-0.074219
83463215000,0.999573,-0.015320,0.014832,0.019043,0.167969,-0.285156,0.003906
83491107000,0.999573,-0.014954,0.014771,0.019165,0.050781,-0.062500,0.042969
83511701000,0.999573,-0.015137,0.014709,0.019897,-0.253906,-0.023438,0.042969
83536712000,0.999573,-0.015320,0.014893,0.020874,0.281250,-0.171875,-0.035156
83551296000,0.999512,-0.015503,0.014832,0.021790,-0.214844,0.136719,0.078125
83571309000,0.999512,-0.015625,0.015015,0.022644,-0.171875,-0.046875,0.195312
83590708000,0.999512,-0.015686,0.015015,0.023254,0.250000,0.066406,0.003906
83618667000,0.999512,-0.015686,0.014954,0.023560,0.328125,-0.046875,-0.074219
83630817000,0.999512,-0.015625,0.015015,0.023743,-0.285156,0.218750,0.078125
83651746000,0.999512,-0.015259,0.014893,0.023987,0.019531,0.097656,0.003906
83673265000,0.999451,-0.015076,0.014954,0.024292,0.058594,-0.093750,0.156250
83691148000,0.999512,-0.015015,0.014893,0.024109,0.367188,0.281250,0.003906
83710968000,0.999512,-0.014954,0.014832,0.023682,0.175781,-0.062500,-0.417969
83731065000,0.999512,-0.015137,0.014832,0.023132,-0.015625,-0.179688,0.078125
83751140000,0.999512,-0.015137,0.014832,0.022949,-0.402344,-0.062500,0.156250
83776362000,0.999512,-0.015137,0.014771,0.022888,-0.363281,-0.093750,-0.187500
83790497000,0.999512,-0.015198,0.014832,0.022888,-0.132812,0.136719,0.078125
83810662000,0.999512,-0.015076,0.014709,0.022644,-0.246094,0.097656,-0.074219
83830698000,0.999512,-0.015198,0.014648,0.022461,0.210938,-0.023438,0.078125
83853083000,0.999512,-0.015320,0.014648,0.022461,0.058594,0.058594,0.042969
83870339000,0.999512,-0.015381,0.014709,0.022156,-0.402344,0.097656,0.117188
83890913000,0.999512,-0.015198,0.014587,0.021912,-0.015625,0.019531,-0.187500
83910496000,0.999573,-0.015015,0.014526,0.021790,0.128906,0.019531,0.003906
83934018000,0.999573,-0.014832,0.014465,0.021851,0.433594,0.011719,0.003906
83950474000,0.999512,-0.014832,0.014465,0.022095,0.742188,0.050781,0.003906
83970882000,0.999512,-0.014771,0.014465,0.022217,-0.214844,-0.101562,0.003906
83990696000,0.999512,-0.014343,0.014221,0.022522,-0.261719,0.121094,0.042969
84020507000,0.999512,-0.015137,0.014282,0.023071,0.082031,-0.148438,0.117188
84030565000,0.999512,-0.014954,0.014282,0.023315,0.089844,0.011719,0.003906
84050720000,0.999512,-0.014465,0.014099,0.023926,0.359375,-0.140625,-0.035156
84069909000,0.999512,-0.014648,0.014221,0.024292,0.464844,0.195312,0.386719
84089764000,0.999512,-0.014832,0.014282,0.024109,-0.675781,0.195312,0.500000
84110720000,0.999512,-0.014465,0.014282,0.024170,-0.292969,-0.101562,0.003906
84129923000,0.999512,-0.015015,0.014404,0.024231,-2.285156,0.550781,-0.304688
84150060000,0.999512,-0.014526,0.014160,0.024353,0.128906,-0.140625,0.003906
84169568000,0.999512,-0.014404,0.014709,0.024475,0.359375,-0.187500,0.300781
84189492000,0.999451,-0.014832,0.015503,0.024658,1.523438,-0.156250,0.617188
84209241000,0.999451,-0.014954,0.015930,0.024719,-0.761719,-0.148438,0.769531
84239376000,0.999451,-0.014221,0.015625,0.024902,-0.453125,0.160156,-0.195312
84254233000,0.999451,-0.014282,0.015564,0.024841,0.082031,0.113281,0.226562
84269828000,0.999451,-0.014221,0.015381,0.024719,-0.117188,-0.078125,-0.003906
84289569000,0.999512,-0.014160,0.015320,0.024414,-0.308594,-0.039062,0.109375
84310238000,0.999512,-0.014221,0.015259,0.024231,-0.238281,-0.039062,-0.011719
84333311000,0.999512,-0.014221,0.015198,0.024048,-0.125000,-0.003906,0.027344
84349027000,0.999512,-0.014465,0.015259,0.023987,-0.316406,-0.039062,-0.050781
84368953000,0.999512,-0.014404,0.015259,0.023987,-0.468750,-0.003906,-0.011719
84388900000,0.999512,-0.014587,0.015198,0.024048,0.105469,0.035156,0.062500
84409398000,0.999512,-0.014221,0.015015,0.024475,1.445312,-0.230469,-0.167969
84429398000,0.999512,-0.014282,0.014893,0.024597,-0.660156,0.074219,0.035156
84449034000,0.999512,-0.012878,0.014038,0.024597,-0.402344,-0.156250,-0.281250
84468784000,0.999512,-0.011841,0.013245,0.024536,-0.691406,0.187500,0.371094
84498813000,0.999512,-0.012573,0.013794,0.024475,-0.031250,-0.042969,-0.089844
84514008000,0.999512,-0.012329,0.013672,0.024475,-0.031250,-0.117188,-0.167969
84528364000,0.999512,-0.012146,0.013550,0.024475,-0.031250,0.035156,0.062500
84548486000,0.999512,-0.012207,0.013611,0.024475,0.003906,-0.003906,-0.011719
84569028000,0.999512,-0.012207,0.013611,0.024475,0.003906,-0.003906,-0.011719
84590054000,0.999512,-0.012329,0.013672,0.024475,-0.031250,-0.003906,0.027344
84608871000,0.999512,-0.012451,0.013733,0.024475,0.042969,-0.003906,0.062500
84628509000,0.999512,-0.012695,0.013855,0.024475,0.003906,0.003906,0.027344
84648144000,0.999512,-0.012939,0.014038,0.024475,0.011719,-0.035156,0.027344
84678131000,0.999512,-0.013306,0.014160,0.024414,0.011719,-0.027344,0.027344
84688087000,0.999512,-0.013367,0.014160,0.024414,0.011719,0.011719,-0.011719
84708254000,0.999512,-0.013367,0.014160,0.024475,-0.023438,-0.019531,-0.011719
84728315000,0.999512,-0.013367,0.014221,0.024414,-0.023438,0.019531,0.062500
84751394000,0.999512,-0.013428,0.014221,0.024414,0.011719,-0.019531,-0.011719
84772521000,0.999512,-0.013306,0.014221,0.024414,0.011719,0.019531,-0.011719
84787699000,0.999512,-0.013367,0.014221,0.024414,0.011719,0.019531,0.027344
84809935000,0.999512,-0.013306,0.014221,0.024414,-0.023438,-0.019531,-0.011719
84827582000,0.999512,-0.013306,0.014160,0.024414,0.003906,0.003906,0.011719
84848142000,0.999512,-0.013306,0.014160,0.024414,0.003906,-0.035156,0.011719
84867857000,0.999512,-0.013306,0.014160,0.024414,0.003906,0.003906,-0.027344
84892038000,0.999512,-0.013367,0.014160,0.024414,0.003906,-0.035156,0.011719
84907660000,0.999512,-0.013367,0.014160,0.024414,0.003906,-0.035156,-0.027344
84931110000,0.999512,-0.013367,0.014160,0.024414,0.003906,0.003906,0.011719
84947583000,0.999512,-0.013367,0.014160,0.024414,-0.031250,-0.035156,-0.027344
84968073000,0.999512,-0.013306,0.014099,0.024414,0.003906,0.011719,-0.027344
84988888000,0.999512,-0.013306,0.014099,0.024414,0.003906,-0.027344,-0.027344
85012568000,0.999512,-0.013306,0.014038,0.024414,0.003906,0.011719,0.019531
85027710000,0.999512,-0.013306,0.014099,0.024414,-0.031250,-0.027344,0.019531
85048046000,0.999512,-0.013306,0.014038,0.024414,0.003906,-0.027344,-0.019531
85067705000,0.999512,-0.013306,0.014099,0.024414,0.003906,-0.027344,0.019531
85091037000,0.999512,-0.013306,0.014099,0.024414,-0.031250,0.003906,0.019531
85107629000,0.999512,-0.013306,0.014099,0.024414,-0.031250,-0.035156,0.019531
85127598000,0.999512,-0.013245,0.014038,0.024414,0.003906,0.003906,-0.019531
85147954000,0.999512,-0.013245,0.014099,0.024414,0.003906,0.003906,-0.019531
85177318000,0.999512,-0.013245,0.014099,0.024414,0.011719,0.003906,-0.019531
85187902000,0.999512,-0.013245,0.014099,0.024414,-0.023438,-0.035156,0.019531
85207383000,0.999512,-0.013245,0.014099,0.024414,0.011719,-0.035156,-0.019531
85227287000,0.999512,-0.013184,0.014099,0.024414,0.011719,0.003906,0.019531
85256925000,0.999512,-0.013184,0.014099,0.024414,-0.023438,0.011719,-0.019531
85266873000,0.999512,-0.013184,0.014099,0.024414,0.011719,0.011719,0.019531
85287059000,0.999512,-0.013184,0.014099,0.024414,0.011719,-0.027344,0.019531
85306788000,0.999512,-0.013184,0.014099,0.024414,0.011719,0.011719,-0.019531
85327464000,0.999512,-0.013184,0.014099,0.024414,-0.023438,-0.027344,0.019531
85346450000,0.999512,-0.013123,0.014099,0.024414,0.011719,-0.027344,0.011719
85368040000,0.999512,-0.013123,0.014099,0.024414,-0.023438,0.011719,0.011719
85390780000,0.999512,-0.013123,0.014099,0.024414,-0.023438,0.011719,0.011719
85406481000,0.999512,-0.013062,0.014099,0.024414,-0.023438,-0.027344,-0.027344
85426323000,0.999512,-0.013062,0.014099,0.024414,-0.023438,0.011719,-0.066406
85446886000,0.999512,-0.013000,0.014038,0.024414,-0.023438,-0.027344,0.011719
85469265000,0.999512,-0.013000,0.014099,0.024414,-0.023438,-0.027344,0.011719
85486280000,0.999512,-0.013000,0.014038,0.024414,0.011719,-0.027344,0.011719
85506123000,0.999512,-0.013000,0.014038,0.024414,-0.023438,0.011719,-0.027344
85526389000,0.999512,-0.013000,0.014038,0.024414,-0.023438,-0.027344,0.011719
85556407000,0.999512,-0.013000,0.013977,0.024414,0.011719,0.011719,-0.027344
85566101000,0.999512,-0.013000,0.013977,0.024414,0.011719,0.011719,-0.027344
85586154000,0.999512,-0.012878,0.013977,0.024414,0.011719,-0.027344,0.019531
85606184000,0.999512,-0.012817,0.013977,0.024414,0.011719,0.003906,-0.019531
85626521000,0.999512,-0.012878,0.013916,0.024414,0.011719,0.003906,0.019531
85651483000,0.999512,-0.012878,0.013916,0.024414,0.011719,-0.035156,-0.019531
85665850000,0.999512,-0.012878,0.013916,0.024475,0.003906,0.003906,0.019531
85686180000,0.999512,-0.012878,0.013916,0.024475,-0.031250,0.003906,-0.019531
85705961000,0.999512,-0.012878,0.013855,0.024475,0.003906,0.003906,0.019531
85727484000,0.999512,-0.012939,0.013916,0.024475,0.003906,-0.035156,-0.019531
85751617000,0.999512,-0.012939,0.013916,0.024475,-0.023438,0.003906,0.019531
85765390000,0.999512,-0.012939,0.013916,0.024475,0.011719,-0.027344,-0.058594
85786431000,0.999512,-0.012939,0.013916,0.024475,0.011719,0.011719,-0.019531
85815865000,0.999512,-0.013000,0.013977,0.024414,-0.023438,0.011719,0.019531
85825857000,0.999512,-0.013000,0.013977,0.024414,0.011719,0.011719,-0.019531
85845570000,0.999512,-0.013000,0.013977,0.024414,0.011719,0.011719,-0.019531
85865633000,0.999512,-0.013000,0.013977,0.024414,-0.023438,0.011719,-0.019531
85885949000,0.999512,-0.013000,0.013977,0.024414,0.011719,-0.027344,-0.019531
85914982000,0.999512,-0.013000,0.013977,0.024414,0.011719,0.011719,0.019531
85925415000,0.999512,-0.013000,0.013977,0.024414,0.003906,0.011719,-0.019531
85945471000,0.999512,-0.013000,0.013977,0.024414,0.003906,-0.027344,0.019531
85965268000,0.999512,-0.013000,0.013977,0.024414,0.003906,-0.027344,0.019531
85986012000,0.999512,-0.013000,0.013977,0.024414,0.003906,0.011719,-0.019531
86015188000,0.999512,-0.013000,0.013977,0.024414,0.003906,0.011719,0.019531
86024942000,0.999512,-0.013000,0.013977,0.024414,-0.031250,0.011719,0.019531
86045291000,0.999512,-0.013000,0.013977,0.024475,-0.031250,0.011719,0.019531
86064892000,0.999512,-0.013000,0.013977,0.024475,0.003906,-0.027344,-0.019531
86095428000,0.999512,-0.013000,0.013977,0.024475,-0.031250,0.011719,-0.019531
86104388000,0.999512,-0.013000,0.013977,0.024475,0.003906,0.011719,-0.019531
86125135000,0.999512,-0.013000,0.013977,0.024475,-0.031250,-0.027344,0.019531
86145007000,0.999512,-0.013000,0.013977,0.024475,-0.031250,0.011719,0.019531
86174398000,0.999512,-0.013000,0.013977,0.024475,-0.023438,0.011719,-0.019531
86184245000,0.999512,-0.013000,0.013977,0.024475,0.011719,0.011719,0.019531
86205003000,0.999512,-0.013000,0.013977,0.024475,-0.023438,0.011719,-0.019531
86224829000,0.999512,-0.013000,0.013977,0.024475,0.011719,-0.027344,0.019531
86244939000,0.999512,-0.013000,0.013977,0.024475,-0.023438,0.011719,0.019531
86274930000,0.999512,-0.013000,0.013977,0.024475,0.011719,-0.027344,-0.019531
86284122000,0.999512,-0.013000,0.013977,0.024475,-0.023438,0.011719,0.019531
86304756000,0.999512,-0.013000,0.013977,0.024475,-0.023438,0.011719,-0.019531
86324893000,0.999512,-0.013000,0.013977,0.024475,0.011719,0.011719,-0.019531
86345399000,0.999512,-0.013000,0.013977,0.024475,0.011719,0.011719,-0.019531
86373722000,0.999512,-0.013000,0.013977,0.024475,0.011719,-0.027344,-0.019531
86383903000,0.999512,-0.013000,0.013977,0.024475,-0.023438,0.011719,0.019531
86413580000,0.999512,-0.013000,0.013977,0.024475,-0.023438,0.011719,-0.058594
86423763000,0.999512,-0.013000,0.013977,0.024475,0.011719,-0.027344,0.019531
86453488000,0.999512,-0.013000,0.013977,0.024475,-0.023438,-0.027344,-0.019531
86465247000,0.999512,-0.013000,0.013977,0.024475,0.011719,0.011719,-0.011719
86484429000,0.999512,-0.013000,0.013977,0.024475,0.011719,0.011719,0.027344
86513307000,0.999512,-0.013000,0.013977,0.024475,0.011719,0.011719,-0.011719
86523100000,0.999512,-0.013000,0.013977,0.024475,0.011719,0.011719,0.027344
86544390000,0.999512,-0.013000,0.013977,0.024475,0.011719,0.011719,0.027344
86564435000,0.999512,-0.013000,0.013977,0.024475,-0.023438,0.011719,0.027344
86592939000,0.999512,-0.013000,0.013977,0.024475,0.011719,0.011719,-0.019531
86603133000,0.999512,-0.013000,0.013977,0.024475,-0.023438,-0.027344,-0.019531
86624400000,0.999512,-0.013000,0.013977,0.024475,0.011719,0.011719,-0.019531
86644405000,0.999512,-0.013000,0.013977,0.024475,0.011719,0.011719,-0.011719
86672861000,0.999512,-0.013000,0.013977,0.024475,0.011719,-0.027344,0.027344
86683269000,0.999512,-0.013000,0.013977,0.024475,0.011719,0.011719,-0.011719
86704485000,0.999512,-0.013000,0.013977,0.024475,0.011719,-0.027344,-0.011719
86724441000,0.999512,-0.013000,0.013977,0.024475,-0.023438,0.011719,0.027344
86752547000,0.999512,-0.013000,0.013977,0.024475,-0.023438,0.011719,-0.011719
86763305000,0.999512,-0.013000,0.013977,0.024475,-0.023438,0.011719,0.027344
86794828000,0.999512,-0.013000,0.013977,0.024475,0.011719,-0.027344,-0.011719
86803361000,0.999512,-0.013000,0.013977,0.024475,0.011719,-0.027344,-0.011719
86834576000,0.999512,-0.013000,0.013977,0.024475,0.011719,0.011719,0.027344
86843152000,0.999512,-0.013000,0.013977,0.024475,-0.023438,0.011719,0.027344
86872533000,0.999512,-0.013000,0.013977,0.024475,0.011719,0.011719,-0.011719
86892244000,0.999512,-0.013000,0.013977,0.024475,-0.023438,0.011719,0.027344
86912686000,0.999512,-0.013000,0.013977,0.024475,0.011719,-0.027344,0.027344
86933547000,0.999512,-0.013000,0.013977,0.024475,0.011719,-0.027344,-0.011719
86957887000,0.999512,-0.013000,0.013977,0.024475,-0.023438,-0.027344,-0.011719
86972294000,0.999512,-0.013000,0.013977,0.024475,0.011719,0.011719,0.027344
86992791000,0.999512,-0.013000,0.013977,0.024475,0.011719,0.011719,-0.011719
87012481000,0.999512,-0.013000,0.013977,0.024475,0.011719,0.011719,-0.011719
87033113000,0.999512,-0.013000,0.013977,0.024475,-0.023438,0.011719,0.027344
87052323000,0.999512,-0.013000,0.013977,0.024475,0.011719,0.011719,-0.011719
87072278000,0.999512,-0.013000,0.013977,0.024475,0.011719,-0.027344,0.027344
87093874000,0.999512,-0.013000,0.013977,0.024475,0.011719,0.011719,-0.011719
87111502000,0.999512,-0.013000,0.013977,0.024475,0.011719,0.011719,-0.011719
87133868000,0.999512,-0.013000,0.013977,0.024475,0.011719,0.011719,0.027344
87155487000,0.999512,-0.013000,0.013977,0.024475,-0.023438,0.011719,-0.011719
87172335000,0.999512,-0.013000,0.013977,0.024475,0.011719,0.011719,-0.011719
87191825000,0.999512,-0.013000,0.013977,0.024475,0.011719,0.011719,-0.011719
87211659000,0.999512,-0.013000,0.013977,0.024475,0.011719,0.011719,-0.011719
87233589000,0.999512,-0.013000,0.013977,0.024475,-0.023438,0.011719,-0.011719
87251804000,0.999512,-0.013000,0.013977,0.024475,0.050781,0.011719,0.027344
87271360000,0.999512,-0.013000,0.013977,0.024475,0.011719,0.003906,-0.011719
87292232000,0.999512,-0.013000,0.013977,0.024475,-0.023438,0.003906,-0.011719
87311307000,0.999512,-0.012878,0.013855,0.024353,0.195312,0.003906,-0.050781
87332093000,0.999512,-0.013123,0.013733,0.023926,0.871094,-0.035156,-0.011719
87351172000,0.999573,-0.013611,0.013733,0.023071,0.128906,-0.218750,-0.050781
87371676000,0.999573,-0.015137,0.013672,0.022034,0.355469,0.304688,-0.242188
87392146000,0.999573,-0.015869,0.013550,0.021362,0.082031,-0.015625,-0.003906
87415866000,0.999573,-0.015686,0.013550,0.021606,0.003906,-0.347656,-0.160156
87430866000,0.999573,-0.015686,0.013489,0.021973,0.195312,0.035156,-0.121094
87450934000,0.999512,-0.015991,0.013550,0.022522,0.035156,0.113281,0.148438
87470913000,0.999512,-0.015930,0.013367,0.023315,0.113281,0.035156,0.070312
87492832000,0.999512,-0.015625,0.013245,0.023499,-0.042969,0.000000,-0.003906
87510749000,0.999512,-0.015686,0.013245,0.023315,0.296875,0.375000,0.062500
87531104000,0.999512,-0.015564,0.013306,0.023132,0.523438,0.144531,0.101562
87550878000,0.999512,-0.015747,0.013550,0.023010,-0.433594,0.218750,-0.160156
87572790000,0.999512,-0.015686,0.013367,0.023071,-0.085938,0.257812,-0.082031
87593051000,0.999512,-0.015503,0.013184,0.023071,0.289062,0.027344,-0.042969
87610640000,0.999512,-0.015564,0.013306,0.023010,0.132812,-0.125000,-0.003906
87630648000,0.999512,-0.015625,0.013306,0.022949,0.210938,-0.046875,-0.082031
87650719000,0.999512,-0.015564,0.013062,0.022949,-0.363281,-0.085938,-0.082031
87673185000,0.999512,-0.015808,0.013245,0.022888,0.011719,-0.007812,0.261719
87690854000,0.999512,-0.015564,0.013184,0.022766,-0.410156,-0.117188,0.261719
87710327000,0.999512,-0.015686,0.013123,0.022766,-0.101562,-0.046875,0.070312
87734425000,0.999512,-0.015381,0.013000,0.022705,-0.066406,-0.117188,-0.121094
87749917000,0.999512,-0.015320,0.013062,0.022705,-0.218750,0.097656,0.148438
87770339000,0.999512,-0.015259,0.013062,0.022766,-0.066406,-0.015625,0.035156
87790297000,0.999573,-0.015015,0.012878,0.022827,-0.300781,0.175781,-0.003906
87813472000,0.999573,-0.015015,0.012878,0.022827,-0.195312,0.089844,0.226562
87829701000,0.999573,-0.014893,0.012756,0.022827,0.156250,-0.093750,-0.273438
87850523000,0.999573,-0.014893,0.012878,0.022705,0.003906,0.050781,0.148438
87869854000,0.999573,-0.014893,0.012817,0.022583,-0.226562,0.097656,-0.082031
87890167000,0.999573,-0.014954,0.012878,0.022339,0.003906,0.097656,-0.003906
87909999000,0.999573,-0.014893,0.012878,0.022095,0.117188,0.136719,0.109375
87930230000,0.999573,-0.015198,0.012878,0.021790,-0.265625,0.136719,0.187500
87955495000,0.999573,-0.014771,0.012695,0.021545,0.156250,0.019531,-0.195312
87969452000,0.999573,-0.015015,0.012695,0.021240,-0.226562,0.128906,0.062500
87989231000,0.999573,-0.014771,0.012695,0.020996,-0.156250,-0.062500,0.027344
88010771000,0.999573,-0.014954,0.012695,0.020630,-0.425781,0.128906,0.062500
88034310000,0.999634,-0.014648,0.012451,0.020386,-0.195312,-0.031250,0.140625
88049064000,0.999634,-0.014893,0.012390,0.020264,-0.234375,-0.214844,-0.195312
88069619000,0.999634,-0.014648,0.012390,0.020142,-0.234375,0.089844,0.035156
88093401000,0.999634,-0.014709,0.012329,0.020020,-0.464844,0.160156,0.261719
88109334000,0.999634,-0.014771,0.012329,0.019958,0.035156,-0.187500,-0.003906
88129027000,0.999634,-0.014648,0.012268,0.019897,0.187500,0.011719,-0.195312
88149694000,0.999634,-0.014832,0.012329,0.019836,-0.695312,0.042969,0.070312
88172475000,0.999634,-0.014771,0.012329,0.019775,0.109375,0.050781,0.035156
88189172000,0.999634,-0.014648,0.012268,0.019653,-0.156250,0.003906,-0.082031
88208856000,0.999634,-0.014526,0.012207,0.019531,0.082031,-0.031250,0.035156
88228953000,0.999634,-0.014526,0.012268,0.019470,0.425781,-0.070312,0.035156
88258691000,0.999634,-0.014587,0.012146,0.019409,-0.417969,0.234375,0.378906
88274141000,0.999634,-0.014160,0.011902,0.019409,-0.109375,-0.332031,-0.312500
88288542000,0.999634,-0.014709,0.012085,0.019226,-0.187500,0.542969,0.261719
88309127000,0.999634,-0.014343,0.011841,0.019104,-0.265625,-0.148438,0.035156
88328855000,0.999634,-0.014648,0.011841,0.018921,0.273438,-0.031250,-0.082031
88352983000,0.999634,-0.014587,0.011902,0.018799,0.347656,-0.179688,-0.121094
88368513000,0.999634,-0.014526,0.011902,0.018677,-0.187500,0.089844,0.035156
88388056000,0.999634,-0.014343,0.011841,0.018616,-0.417969,-0.148438,-0.167969
88411728000,0.999634,-0.014404,0.011780,0.018494,-0.417969,-0.070312,0.062500
88431748000,0.999634,-0.014465,0.011902,0.018433,-0.187500,-0.031250,-0.089844
88448210000,0.999634,-0.014526,0.011841,0.018433,-0.839844,0.003906,0.027344
88468536000,0.999634,-0.014404,0.011841,0.018494,-0.074219,-0.148438,-0.050781
88488542000,0.999634,-0.014343,0.011841,0.018616,-0.265625,0.121094,0.027344
88508899000,0.999634,-0.014221,0.011780,0.018677,-0.339844,0.003906,-0.011719
88533091000,0.999634,-0.014160,0.011780,0.018799,-0.109375,0.003906,0.027344
88547881000,0.999634,-0.014099,0.011780,0.018860,0.011719,-0.039062,-0.050781
88568171000,0.999634,-0.014099,0.011658,0.018921,0.011719,0.035156,-0.011719
88598283000,0.999634,-0.014160,0.011658,0.019043,0.125000,-0.039062,-0.003906
88611702000,0.999634,-0.014038,0.011658,0.019165,-0.066406,-0.039062,0.070312
88627854000,0.999634,-0.014038,0.011475,0.019287,0.425781,-0.046875,0.062500
88648204000,0.999634,-0.014160,0.011414,0.019165,0.394531,-0.039062,-0.160156
88677686000,0.999634,-0.014282,0.011597,0.018982,0.585938,-0.031250,0.226562
88687684000,0.999634,-0.014221,0.011536,0.019043,0.203125,-0.187500,-0.042969
88708242000,0.999634,-0.014160,0.011719,0.018982,-0.257812,0.121094,-0.121094
88727990000,0.999695,-0.013855,0.010620,0.018555,-3.390625,0.304688,-0.160156
88747554000,0.999695,-0.013916,0.009583,0.018188,0.300781,0.074219,0.093750
88776935000,0.999695,-0.014099,0.010376,0.018066,-0.187500,-0.039062,-0.097656
88788062000,0.999695,-0.013916,0.010437,0.017944,-0.300781,0.035156,-0.058594
88807375000,0.999695,-0.014038,0.010925,0.017822,0.242188,-0.039062,0.019531
88827661000,0.999695,-0.013977,0.010864,0.017761,-0.250000,-0.039062,-0.097656
88856979000,0.999695,-0.014099,0.011108,0.017700,0.019531,-0.003906,0.019531
88867818000,0.999695,-0.014160,0.011108,0.017700,-0.093750,-0.039062,0.019531
88886882000,0.999695,-0.014160,0.011108,0.017700,-0.058594,-0.003906,-0.019531
88907155000,0.999695,-0.014160,0.011108,0.017700,-0.011719,-0.003906,-0.019531
88937045000,0.999695,-0.014099,0.011047,0.017700,-0.050781,-0.003906,0.019531
88952185000,0.999695,-0.014160,0.011047,0.017700,-0.050781,-0.003906,0.019531
88966468000,0.999695,-0.014099,0.011047,0.017700,-0.085938,-0.003906,-0.019531
88986625000,0.999695,-0.014099,0.011047,0.017700,-0.050781,-0.003906,0.019531
89006943000,0.999695,-0.014160,0.011047,0.017761,-0.050781,-0.039062,0.019531
89036294000,0.999695,-0.014221,0.011108,0.017761,-0.085938,-0.003906,-0.019531
89047205000,0.999695,-0.014221,0.011108,0.017761,-0.050781,-0.039062,-0.019531
89066427000,0.999695,-0.014282,0.011108,0.017700,-0.042969,-0.003906,0.019531
89086654000,0.999695,-0.014282,0.011108,0.017761,-0.078125,0.003906,0.019531
89116761000,0.999695,-0.014282,0.011169,0.017700,-0.078125,0.003906,-0.019531
89133209000,0.999695,-0.014343,0.011169,0.017700,-0.011719,0.011719,0.019531
89146199000,0.999695,-0.014343,0.011169,0.017700,-0.046875,0.011719,0.019531
89166534000,0.999695,-0.014343,0.011169,0.017700,-0.046875,0.011719,-0.019531
89187187000,0.999695,-0.014343,0.011169,0.017700,-0.046875,0.011719,-0.019531
89211665000,0.999695,-0.014282,0.011169,0.017700,-0.003906,0.011719,0.019531
89226735000,0.999695,-0.014343,0.011169,0.017700,-0.039062,0.011719,0.019531
89246759000,0.999695,-0.014343,0.011169,0.017700,-0.039062,0.011719,-0.019531
89266238000,0.999695,-0.014343,0.011169,0.017700,-0.003906,0.003906,-0.027344
89295705000,0.999695,-0.014343,0.011169,0.017700,-0.003906,0.003906,-0.027344
89310049000,0.999695,-0.014343,0.011169,0.017700,-0.003906,0.003906,-0.027344
89325509000,0.999695,-0.014282,0.011108,0.017700,0.003906,-0.031250,0.011719
89346400000,0.999695,-0.014282,0.011108,0.017700,-0.031250,-0.031250,0.011719
89366482000,0.999695,-0.014282,0.011108,0.017700,0.003906,0.003906,-0.027344
89395635000,0.999695,-0.014282,0.011108,0.017700,-0.031250,0.003906,0.011719
89406005000,0.999695,-0.014282,0.011108,0.017700,0.003906,0.003906,0.011719
89426328000,0.999695,-0.014282,0.011108,0.017700,-0.031250,0.003906,-0.027344
89445855000,0.999695,-0.014282,0.011108,0.017700,-0.031250,0.003906,0.011719
89466610000,0.999695,-0.014282,0.011108,0.017700,0.003906,0.003906,-0.027344
89485581000,0.999695,-0.014282,0.011108,0.017700,-0.031250,0.003906,0.011719
89506783000,0.999695,-0.014343,0.011108,0.017700,0.003906,0.003906,0.011719
89529758000,0.999695,-0.014343,0.011169,0.017700,0.003906,-0.031250,-0.027344
89546134000,0.999695,-0.014404,0.011169,0.017700,0.011719,-0.031250,-0.027344
89565787000,0.999695,-0.014404,0.011169,0.017700,-0.023438,0.011719,-0.019531
89585675000,0.999695,-0.014404,0.011169,0.017700,-0.023438,0.011719,-0.019531
89615482000,0.999695,-0.014404,0.011108,0.017761,0.011719,0.011719,-0.019531
89624864000,0.999695,-0.014404,0.011108,0.017761,-0.023438,0.011719,-0.019531
89645845000,0.999695,-0.014465,0.011108,0.017761,0.011719,0.011719,-0.019531
89665624000,0.999695,-0.014465,0.011108,0.017761,-0.023438,0.011719,-0.011719
89694978000,0.999695,-0.014465,0.011108,0.017700,-0.023438,0.011719,0.027344
89705275000,0.999695,-0.014465,0.011169,0.017700,0.011719,0.011719,0.027344
89725886000,0.999695,-0.014465,0.011169,0.017700,0.003906,0.003906,-0.019531
89745403000,0.999695,-0.014465,0.011169,0.017700,0.003906,0.003906,0.019531
89765432000,0.999695,-0.014465,0.011169,0.017700,-0.031250,0.003906,0.019531
89794707000,0.999695,-0.014526,0.011108,0.017700,-0.031250,-0.031250,0.011719
89805021000,0.999695,-0.014465,0.011108,0.017700,-0.031250,0.003906,0.011719
89824975000,0.999695,-0.014465,0.011169,0.017700,0.003906,0.003906,0.011719
89854404000,0.999695,-0.014465,0.011169,0.017700,0.003906,0.003906,0.011719
89870248000,0.999695,-0.014465,0.011169,0.017700,-0.031250,0.003906,0.011719
89884831000,0.999695,-0.014465,0.011169,0.017700,-0.031250,0.003906,-0.027344
89904947000,0.999695,-0.014465,0.011169,0.017700,0.003906,0.003906,-0.027344
89924768000,0.999695,-0.014465,0.011169,0.017700,0.003906,0.003906,-0.027344
89954454000,0.999695,-0.014465,0.011169,0.017700,0.003906,0.003906,0.011719
89964209000,0.999695,-0.014526,0.011169,0.017700,0.003906,0.003906,0.011719
89985708000,0.999695,-0.014526,0.011169,0.017700,0.003906,0.003906,-0.027344
90013761000,0.999695,-0.014465,0.011169,0.017700,0.003906,0.003906,0.011719
90024439000,0.999695,-0.014465,0.011169,0.017700,0.003906,0.003906,0.011719
90044999000,0.999695,-0.014526,0.011169,0.017700,-0.031250,0.003906,0.011719
90065029000,0.999695,-0.014465,0.011169,0.017700,0.003906,0.003906,0.011719
90094228000,0.999695,-0.014465,0.011169,0.017700,-0.031250,0.003906,-0.027344
90104354000,0.999695,-0.014465,0.011230,0.017700,-0.023438,-0.031250,-0.027344
90124687000,0.999695,-0.014465,0.011230,0.017700,0.011719,0.003906,-0.027344
90145084000,0.999695,-0.014465,0.011230,0.017700,0.011719,0.003906,-0.027344
90173731000,0.999695,-0.014465,0.011169,0.017700,0.011719,-0.031250,-0.019531
90189663000,0.999695,-0.014465,0.011230,0.017700,0.003906,0.003906,0.019531
90204598000,0.999695,-0.014465,0.011169,0.017700,0.011719,0.003906,0.019531
90233309000,0.999695,-0.014526,0.011169,0.017700,-0.031250,0.003906,-0.019531
90243284000,0.999695,-0.014526,0.011169,0.017700,0.003906,-0.031250,0.019531
90264722000,0.999695,-0.014526,0.011108,0.017761,0.003906,0.003906,0.019531
90293912000,0.999695,-0.014526,0.011108,0.017761,0.003906,0.003906,0.019531
90303540000,0.999695,-0.014526,0.011108,0.017761,-0.003906,0.003906,0.019531
90324644000,0.999695,-0.014526,0.011108,0.017761,-0.003906,0.003906,0.019531
90345453000,0.999695,-0.014526,0.011108,0.017700,-0.003906,0.003906,0.019531
90373072000,0.999695,-0.014587,0.011108,0.017761,-0.003906,-0.031250,0.011719
90388419000,0.999695,-0.014587,0.011169,0.017700,-0.039062,-0.031250,0.011719
90405631000,0.999695,-0.014526,0.011108,0.017761,-0.003906,0.003906,0.011719
90424594000,0.999695,-0.014526,0.011108,0.017761,-0.003906,0.003906,0.011719
90444751000,0.999695,-0.014587,0.011108,0.017761,-0.003906,0.003906,0.011719
90464488000,0.999695,-0.014587,0.011169,0.017700,-0.039062,0.003906,-0.027344
90493536000,0.999695,-0.014526,0.011169,0.017700,-0.039062,0.003906,-0.027344
90503551000,0.999695,-0.014526,0.011169,0.017700,-0.039062,0.003906,0.011719
90533014000,0.999695,-0.014526,0.011169,0.017761,-0.003906,0.003906,0.011719
90553124000,0.999695,-0.014526,0.011169,0.017700,-0.039062,0.003906,-0.027344
90572477000,0.999695,-0.014587,0.011169,0.017700,-0.031250,0.003906,-0.027344
90583315000,0.999695,-0.014587,0.011169,0.017700,0.003906,0.003906,0.011719
90604612000,0.999695,-0.014587,0.011169,0.017700,0.003906,-0.031250,0.011719
90632326000,0.999695,-0.014587,0.011169,0.017700,0.003906,-0.031250,0.019531
90653781000,0.999695,-0.014587,0.011169,0.017700,-0.031250,0.003906,0.019531
90679170000,0.999695,-0.014648,0.011169,0.017700,0.003906,0.003906,0.019531
90692711000,0.999695,-0.014587,0.011169,0.017700,0.003906,0.003906,0.019531
90711896000,0.999695,-0.014587,0.011169,0.017761,0.003906,0.003906,-0.019531
90731861000,0.999695,-0.014587,0.011169,0.017700,-0.031250,-0.031250,-0.027344
90743241000,0.999695,-0.014587,0.011169,0.017761,-0.031250,0.003906,0.011719
90772053000,0.999695,-0.014587,0.011230,0.017700,0.003906,0.003906,0.011719
90792199000,0.999695,-0.014526,0.011108,0.017700,-0.109375,0.003906,0.011719
90811971000,0.999695,-0.014465,0.011108,0.017700,0.003906,0.003906,0.011719
90834437000,0.999695,-0.014587,0.011108,0.017700,0.003906,0.003906,0.046875
90851659000,0.999695,-0.014526,0.011047,0.017700,0.003906,0.003906,-0.066406
90871968000,0.999695,-0.014526,0.010986,0.017700,-0.031250,-0.031250,-0.027344
90892022000,0.999695,-0.014526,0.010986,0.017700,0.003906,0.003906,0.019531
90911675000,0.999695,-0.014465,0.010986,0.017761,-0.031250,0.003906,-0.058594
90935606000,0.999695,-0.014465,0.010986,0.017761,0.003906,0.003906,0.019531
90951741000,0.999695,-0.014465,0.010986,0.017761,-0.031250,0.003906,0.011719
90971885000,0.999695,-0.014465,0.010925,0.017761,0.003906,0.003906,0.011719
90991423000,0.999695,-0.014465,0.010986,0.017761,0.003906,0.003906,0.011719
91011563000,0.999695,-0.014465,0.010986,0.017700,-0.023438,0.003906,-0.027344
91031286000,0.999695,-0.014465,0.010925,0.017700,-0.023438,-0.031250,-0.027344
91051213000,0.999695,-0.014465,0.010986,0.017700,0.011719,0.003906,0.011719
91076473000,0.999695,-0.014465,0.010986,0.017761,0.011719,0.003906,0.046875
91090915000,0.999695,-0.014404,0.010864,0.017700,-0.023438,0.003906,-0.027344
91111808000,0.999695,-0.014404,0.010864,0.017700,0.011719,0.003906,0.011719
91131080000,0.999695,-0.014526,0.010986,0.017700,-0.062500,0.042969,0.046875
91153189000,0.999695,-0.014465,0.010925,0.017700,-0.023438,-0.031250,0.011719
91178546000,0.999695,-0.014465,0.010925,0.017700,0.011719,0.042969,0.011719
91191280000,0.999695,-0.014404,0.010925,0.017700,-0.023438,-0.031250,-0.027344
91211199000,0.999695,-0.014343,0.010925,0.017700,0.011719,0.003906,0.011719
91231236000,0.999695,-0.014343,0.010925,0.017700,0.011719,0.003906,0.011719
91251010000,0.999695,-0.014343,0.010864,0.017761,0.050781,0.003906,-0.027344
91270849000,0.999695,-0.014343,0.010925,0.017822,-0.179688,0.042969,-0.027344
91294562000,0.999695,-0.014343,0.010864,0.017761,-0.023438,-0.031250,-0.027344
91316561000,0.999695,-0.014404,0.010925,0.017761,0.011719,0.082031,0.046875
91330915000,0.999695,-0.014343,0.010864,0.017822,0.050781,0.003906,0.011719
91350242000,0.999695,-0.014404,0.010864,0.017822,-0.023438,0.042969,0.011719
91371180000,0.999695,-0.014343,0.010864,0.017822,0.011719,0.003906,0.011719
91395456000,0.999695,-0.014343,0.010864,0.017822,-0.023438,0.003906,0.011719
91410210000,0.999695,-0.014343,0.010864,0.017883,-0.023438,0.003906,-0.027344
91429892000,0.999695,-0.014343,0.010864,0.017883,-0.023438,0.003906,0.011719
91450434000,0.999695,-0.014343,0.010925,0.017883,-0.023438,0.003906,-0.027344
91473057000,0.999695,-0.014343,0.010925,0.017883,-0.023438,-0.003906,0.011719
91496707000,0.999695,-0.014343,0.010925,0.017883,0.011719,-0.003906,0.011719
91510130000,0.999695,-0.014343,0.010925,0.017883,0.011719,0.035156,0.011719
91529709000,0.999695,-0.014343,0.010925,0.017822,-0.023438,0.003906,-0.027344
91550502000,0.999695,-0.014343,0.010986,0.017883,0.011719,0.003906,0.011719
91574031000,0.999695,-0.014343,0.010986,0.017822,0.050781,-0.003906,0.011719
91589779000,0.999695,-0.014282,0.010986,0.017822,0.011719,-0.003906,-0.027344
91609482000,0.999695,-0.014343,0.010986,0.017822,0.011719,-0.003906,0.011719
91634521000,0.999695,-0.014343,0.010925,0.017822,0.011719,-0.003906,0.011719
91649623000,0.999695,-0.014343,0.010925,0.017822,0.011719,-0.003906,-0.027344
91669501000,0.999695,-0.014282,0.010925,0.017822,0.011719,-0.003906,-0.027344
91699778000,0.999695,-0.014343,0.010864,0.017883,0.203125,-0.039062,0.011719
91715901000,0.999695,-0.014343,0.010925,0.017883,0.011719,-0.003906,0.011719
91729156000,0.999695,-0.014343,0.010864,0.017883,-0.023438,-0.003906,-0.027344
91749433000,0.999695,-0.014343,0.010864,0.017822,0.050781,0.042969,-0.027344
91769236000,0.999695,-0.014343,0.010803,0.017700,0.011719,0.035156,-0.027344
91795585000,0.999695,-0.014343,0.010803,0.017578,-0.023438,0.003906,0.011719
91809227000,0.999695,-0.014465,0.010559,0.017334,0.074219,0.082031,0.011719
91829318000,0.999695,-0.014526,0.010254,0.017090,0.027344,-0.031250,0.019531
91849807000,0.999695,-0.014587,0.009949,0.016907,0.058594,0.003906,-0.019531
91874937000,0.999695,-0.014587,0.009644,0.016785,-0.062500,0.003906,0.019531
91888526000,0.999695,-0.014648,0.009460,0.016724,-0.101562,-0.031250,0.019531
91908970000,0.999695,-0.014648,0.009338,0.016663,-0.054688,-0.023438,0.019531
91929023000,0.999695,-0.014709,0.009094,0.016602,0.050781,0.003906,-0.011719
91953207000,0.999695,-0.014954,0.008606,0.016357,0.156250,0.089844,-0.019531
91968493000,0.999756,-0.014893,0.007446,0.015747,0.472656,0.136719,-0.019531
91988503000,0.999817,-0.012390,0.005920,0.015198,-0.027344,-0.570312,-0.210938
92009612000,0.999817,-0.010132,0.004883,0.014587,0.125000,0.140625,-0.058594
92038596000,0.999878,-0.009033,0.003113,0.013794,1.632812,-0.496094,0.285156
92054476000,0.999878,-0.009583,0.003357,0.013916,0.812500,-0.726562,0.285156
92068220000,0.999817,-0.012451,0.003601,0.014587,-0.257812,0.074219,-0.480469
92088927000,0.999817,-0.012634,0.003296,0.015503,-0.289062,-0.070312,-0.367188
92109098000,0.999817,-0.009583,0.003357,0.016052,-0.136719,0.082031,0.285156
92132784000,0.999756,-0.011047,0.005127,0.017090,1.855469,0.507812,0.054688
92147976000,0.999695,-0.012207,0.007935,0.018616,0.023438,-0.410156,0.820312
92167967000,0.999695,-0.009583,0.010681,0.020325,0.242188,-0.011719,-0.250000
92187985000,0.999634,-0.013245,0.011108,0.021484,-0.664062,0.894531,-1.898438
92218698000,0.999634,-0.012817,0.011658,0.021667,0.324219,0.019531,0.019531
92227570000,0.999634,-0.012634,0.011475,0.021240,-0.093750,-0.246094,-0.058594
92247828000,0.999634,-0.012207,0.011108,0.020569,-0.562500,0.097656,0.363281
92267572000,0.999634,-0.012573,0.011108,0.020325,0.281250,-0.101562,0.324219
92289107000,0.999634,-0.013123,0.011414,0.020081,0.234375,-0.171875,-0.175781
92314007000,0.999634,-0.012939,0.011536,0.019592,0.125000,-0.203125,-0.441406
92327580000,0.999634,-0.013123,0.012146,0.019287,-0.218750,-0.019531,-0.019531
92347892000,0.999634,-0.013489,0.012329,0.018982,-0.554688,-0.238281,0.054688
92368571000,0.999634,-0.013794,0.012573,0.018677,-0.164062,-0.078125,-0.097656
92393497000,0.999634,-0.013855,0.012329,0.018494,-0.203125,-0.003906,-0.328125
92407755000,0.999695,-0.013428,0.012329,0.018188,0.179688,-0.070312,-0.441406
92427844000,0.999695,-0.013611,0.012268,0.017944,-0.242188,0.035156,0.132812
92447512000,0.999695,-0.013550,0.012207,0.017822,0.058594,-0.117188,-0.019531
92471825000,0.999634,-0.014771,0.012695,0.017578,0.289062,-0.003906,0.285156
92487813000,0.999695,-0.014099,0.012573,0.017273,-0.234375,-0.394531,-0.824219
92508011000,0.999695,-0.014404,0.011658,0.016724,-0.968750,0.503906,0.636719
92534064000,0.999695,-0.013611,0.010559,0.016357,0.433594,-0.214844,-0.472656
92546795000,0.999695,-0.014954,0.011292,0.016296,-0.464844,0.113281,0.593750
92567056000,0.999634,-0.016907,0.011475,0.016174,-0.449219,0.035156,0.445312
92588273000,0.999634,-0.017334,0.011719,0.016174,-0.257812,-0.101562,-0.433594
92606752000,0.999634,-0.017212,0.011780,0.015869,-0.058594,-0.125000,-0.128906
92626809000,0.999634,-0.017761,0.012085,0.015686,-0.433594,0.152344,0.179688
92646593000,0.999634,-0.017639,0.012329,0.015564,-0.347656,-0.109375,-0.089844
92677407000,0.999695,-0.014282,0.013062,0.015442,-0.464844,-0.117188,0.675781
92686545000,0.999695,-0.014771,0.012817,0.015564,-0.109375,0.464844,0.179688
92706722000,0.999695,-0.014343,0.012634,0.015503,-0.226562,0.351562,0.601562
92726779000,0.999695,-0.014526,0.012756,0.015503,-0.148438,-0.031250,0.140625
92756426000,0.999695,-0.014709,0.012695,0.015503,-0.339844,0.011719,-0.011719
92771491000,0.999695,-0.014465,0.012634,0.015503,-0.109375,0.050781,-0.011719
92786136000,0.999695,-0.014160,0.012756,0.015442,0.082031,0.570312,0.601562
92806120000,0.999695,-0.014282,0.012878,0.015381,-0.261719,-0.003906,0.027344
92826993000,0.999695,-0.014038,0.012756,0.015259,0.121094,-0.070312,-0.050781
92851777000,0.999695,-0.014465,0.012878,0.015137,0.312500,-0.003906,0.285156
92865881000,0.999695,-0.014282,0.012817,0.014954,0.128906,-0.109375,-0.367188
92886232000,0.999695,-0.014404,0.012817,0.014771,0.273438,0.082031,-0.058594
92907199000,0.999695,-0.015015,0.012939,0.014526,0.156250,-0.109375,0.093750
92931668000,0.999695,-0.015564,0.013062,0.014282,-0.179688,-0.054688,0.027344
92945754000,0.999695,-0.016418,0.013123,0.014038,-0.523438,0.066406,-0.089844
92966200000,0.999695,-0.017090,0.013184,0.013794,-0.601562,-0.023438,-0.011719
92986514000,0.999695,-0.017029,0.013428,0.013672,-0.562500,-0.093750,0.027344
93015634000,0.999695,-0.016113,0.013916,0.013672,-0.808594,0.343750,0.292969
93026049000,0.999695,-0.016296,0.013733,0.013672,-0.761719,0.000000,-0.777344
93045704000,0.999695,-0.016235,0.013733,0.013611,-0.003906,-0.109375,0.253906
93065819000,0.999695,-0.016235,0.013733,0.013611,-0.156250,0.074219,-0.089844
93095621000,0.999695,-0.016235,0.013733,0.013550,-0.078125,0.000000,0.027344
93105737000,0.999695,-0.016296,0.013733,0.013550,-0.078125,0.000000,-0.011719
93125580000,0.999695,-0.016296,0.013672,0.013489,-0.070312,-0.031250,-0.011719
93145640000,0.999695,-0.016357,0.013672,0.013428,-0.109375,0.042969,0.027344
93166156000,0.999695,-0.016479,0.013489,0.013367,-0.109375,-0.031250,-0.011719
93195705000,0.999695,-0.016541,0.013367,0.013306,-0.031250,0.007812,0.027344
93205443000,0.999695,-0.016602,0.013306,0.013306,-0.003906,-0.031250,-0.011719
93226339000,0.999695,-0.016663,0.013245,0.013306,-0.003906,-0.031250,0.027344
93245832000,0.999695,-0.016663,0.013184,0.013245,-0.003906,-0.023438,0.027344
93275220000,0.999695,-0.016541,0.013184,0.013245,-0.070312,0.007812,-0.011719
93285381000,0.999695,-0.016479,0.013184,0.013245,-0.070312,0.007812,-0.019531
93305125000,0.999695,-0.016357,0.013184,0.013245,0.003906,0.042969,0.019531
93328601000,0.999695,-0.016235,0.013123,0.013184,-0.109375,0.007812,-0.019531
93345820000,0.999695,-0.016113,0.013062,0.013184,-0.031250,0.007812,-0.019531
93374905000,0.999695,-0.015991,0.013000,0.013123,0.023438,0.007812,-0.027344
93385127000,0.999695,-0.015930,0.012939,0.013123,0.089844,0.007812,0.011719
93405462000,0.999695,-0.015869,0.012939,0.013062,0.121094,0.000000,0.046875
93425291000,0.999695,-0.015869,0.012939,0.013062,0.007812,0.000000,-0.027344
93454594000,0.999695,-0.015808,0.012878,0.013062,0.042969,0.000000,-0.027344
93465002000,0.999695,-0.015808,0.012878,0.013062,0.074219,0.000000,0.011719
93485241000,0.999695,-0.015747,0.012878,0.013000,0.074219,0.000000,-0.027344
93505091000,0.999695,-0.015747,0.012878,0.013062,0.027344,0.000000,0.011719
93534780000,0.999695,-0.015747,0.012878,0.013062,-0.007812,0.000000,0.011719
93544537000,0.999695,-0.015747,0.012878,0.013062,-0.007812,0.000000,0.011719
93564768000,0.999695,-0.015747,0.012878,0.013062,-0.007812,0.000000,-0.027344
93584925000,0.999695,-0.015747,0.012878,0.013062,-0.046875,0.000000,-0.027344
93605004000,0.999695,-0.015686,0.012878,0.013062,-0.085938,0.000000,0.011719
93630189000,0.999695,-0.015625,0.012878,0.013062,-0.046875,0.000000,-0.019531
93644687000,0.999695,-0.015564,0.012878,0.013000,0.035156,0.000000,0.019531
93664774000,0.999695,-0.015503,0.012878,0.013000,0.000000,0.035156,-0.019531
93695118000,0.999695,-0.015503,0.012878,0.013000,0.113281,-0.007812,-0.019531
93708974000,0.999695,-0.015503,0.012878,0.013000,0.027344,-0.007812,0.019531
93724673000,0.999695,-0.015503,0.012878,0.013000,-0.007812,0.027344,-0.019531
93744776000,0.999695,-0.015503,0.012878,0.013000,-0.007812,0.027344,0.019531
93774006000,0.999695,-0.015503,0.012878,0.013000,-0.007812,-0.015625,0.019531
93784029000,0.999695,-0.015442,0.012878,0.013000,-0.007812,0.019531,0.019531
93804804000,0.999695,-0.015503,0.012878,0.013000,0.027344,-0.015625,0.019531
93833608000,0.999695,-0.015503,0.012878,0.012939,-0.007812,0.019531,0.019531
93843573000,0.999695,-0.015503,0.012878,0.012939,-0.007812,-0.015625,-0.019531
93864553000,0.999695,-0.015564,0.012878,0.012939,-0.007812,0.019531,-0.019531
93884401000,0.999695,-0.015564,0.012878,0.012939,-0.007812,-0.015625,0.019531
93913583000,0.999695,-0.015564,0.012878,0.012939,-0.007812,-0.007812,0.019531
93923657000,0.999695,-0.015564,0.012878,0.012939,-0.007812,-0.007812,0.019531
93944462000,0.999695,-0.015503,0.012878,0.012878,0.027344,-0.007812,-0.019531
93964365000,0.999695,-0.015503,0.012878,0.012939,-0.015625,0.019531,-0.019531
93984370000,0.999695,-0.015503,0.012878,0.012939,-0.015625,0.019531,-0.019531
94013096000,0.999695,-0.015503,0.012878,0.012878,-0.007812,-0.015625,0.027344
94023148000,0.999695,-0.015503,0.012878,0.012878,-0.007812,-0.015625,0.027344
94054339000,0.999695,-0.015503,0.012878,0.012817,-0.007812,-0.015625,0.027344
94063536000,0.999695,-0.015503,0.012878,0.012817,-0.046875,0.019531,0.027344
94092932000,0.999695,-0.015442,0.012878,0.012817,-0.007812,-0.015625,0.019531
94103202000,0.999695,-0.015442,0.012878,0.012756,-0.039062,0.019531,-0.019531
94124411000,0.999695,-0.015442,0.012817,0.012756,0.000000,-0.015625,-0.019531
94145954000,0.999695,-0.015381,0.012817,0.012756,0.113281,-0.015625,0.027344
94173144000,0.999695,-0.015381,0.012817,0.012756,-0.007812,-0.015625,-0.011719
94183164000,0.999695,-0.015381,0.012817,0.012756,-0.007812,-0.015625,0.027344
94204394000,0.999695,-0.015381,0.012817,0.012756,0.027344,0.019531,-0.011719
94224428000,0.999695,-0.015381,0.012817,0.012756,-0.007812,0.019531,0.027344
94253216000,0.999695,-0.015381,0.012817,0.012756,-0.007812,-0.015625,0.027344
94263168000,0.999695,-0.015381,0.012817,0.012756,-0.007812,-0.015625,0.027344
94295261000,0.999695,-0.015381,0.012817,0.012756,-0.007812,0.019531,-0.011719
94303199000,0.999695,-0.015320,0.012817,0.012756,0.027344,0.019531,0.027344
94332285000,0.999695,-0.015381,0.012817,0.012756,-0.007812,-0.015625,0.027344
94352007000,0.999695,-0.015320,0.012817,0.012756,-0.007812,0.019531,0.027344
94372303000,0.999695,-0.015381,0.012817,0.012756,-0.007812,0.019531,-0.011719
94393479000,0.999695,-0.015320,0.012817,0.012756,-0.007812,0.019531,0.027344
94413086000,0.999695,-0.015320,0.012817,0.012756,-0.007812,0.019531,-0.011719
94432253000,0.999695,-0.015320,0.012817,0.012756,-0.007812,-0.015625,-0.011719
94453193000,0.999695,-0.015381,0.012817,0.012756,-0.007812,0.019531,0.027344
94472222000,0.999695,-0.015381,0.012817,0.012756,-0.007812,0.019531,-0.011719
94495542000,0.999695,-0.015381,0.012817,0.012695,-0.007812,-0.015625,-0.011719
94512043000,0.999695,-0.015381,0.012817,0.012695,-0.007812,0.019531,-0.011719
94531946000,0.999695,-0.015442,0.012817,0.012695,-0.007812,0.011719,-0.011719
94551469000,0.999695,-0.015442,0.012817,0.012695,-0.007812,0.011719,-0.011719
94572956000,0.999695,-0.015442,0.012878,0.012695,-0.007812,0.011719,-0.011719
94596476000,0.999695,-0.015442,0.012878,0.012695,-0.007812,0.011719,0.027344
94603310000,0.999695,-0.015442,0.012878,0.012695,-0.007812,0.011719,0.027344
94631422000,0.999695,-0.015442,0.012878,0.012695,-0.007812,0.011719,-0.011719
94653249000,0.999695,-0.015442,0.012878,0.012695,-0.007812,0.011719,-0.011719
94671904000,0.999695,-0.015442,0.012878,0.012634,0.027344,0.011719,-0.011719
94691288000,0.999695,-0.015442,0.012878,0.012634,-0.007812,-0.023438,0.027344
94711230000,0.999695,-0.015442,0.012817,0.012634,-0.007812,0.011719,0.027344
94731022000,0.999695,-0.015442,0.012817,0.012634,-0.007812,0.011719,0.027344
94751599000,0.999695,-0.015442,0.012817,0.012634,-0.007812,-0.023438,0.027344
94770976000,0.999695,-0.015442,0.012817,0.012634,-0.007812,-0.023438,-0.050781
94791322000,0.999695,-0.015442,0.012817,0.012634,-0.007812,0.011719,-0.050781
94814829000,0.999695,-0.015442,0.012817,0.012634,0.000000,0.011719,-0.011719
94831171000,0.999695,-0.015442,0.012817,0.012634,0.000000,0.011719,0.027344
94850948000,0.999695,-0.015442,0.012756,0.012634,0.035156,0.011719,0.027344
94871161000,0.999695,-0.015503,0.012756,0.012634,0.000000,-0.023438,-0.011719
94896673000,0.999695,-0.015503,0.012817,0.012634,0.035156,-0.023438,0.027344
94911233000,0.999695,-0.015503,0.012756,0.012634,0.000000,-0.023438,0.027344
94930679000,0.999695,-0.015503,0.012756,0.012634,0.000000,-0.023438,-0.011719
94950338000,0.999695,-0.015503,0.012756,0.012634,0.000000,-0.023438,0.027344
94971396000,0.999695,-0.015503,0.012756,0.012634,0.000000,-0.023438,-0.011719
94995170000,0.999695,-0.015503,0.012756,0.012634,0.000000,-0.023438,0.027344
95010787000,0.999695,-0.015503,0.012756,0.012634,0.000000,0.011719,0.027344
95035650000,0.999695,-0.015503,0.012756,0.012634,0.000000,0.011719,0.027344
95051243000,0.999695,-0.015503,0.012756,0.012634,0.000000,0.011719,-0.011719
95070656000,0.999695,-0.015503,0.012756,0.012634,0.000000,0.011719,-0.011719
95090908000,0.999695,-0.015503,0.012756,0.012634,0.035156,0.011719,-0.011719
95112926000,0.999695,-0.015503,0.012756,0.012573,0.000000,-0.023438,0.027344
95130789000,0.999695,-0.015503,0.012756,0.012573,0.027344,0.011719,-0.011719
95150237000,0.999695,-0.015503,0.012756,0.012573,-0.007812,-0.023438,0.027344
95169957000,0.999695,-0.015442,0.012756,0.012634,-0.007812,0.011719,-0.011719
95192128000,0.999695,-0.015442,0.012756,0.012634,-0.007812,-0.023438,0.027344
95210335000,0.999695,-0.015381,0.012756,0.012634,0.027344,-0.023438,-0.011719
95229753000,0.999695,-0.015381,0.012756,0.012634,-0.007812,0.011719,-0.011719
95249757000,0.999695,-0.015381,0.012695,0.012634,-0.007812,0.011719,0.027344
95272890000,0.999695,-0.015320,0.012634,0.012695,0.210938,0.011719,-0.050781
95293171000,0.999695,-0.015381,0.012573,0.012695,0.128906,-0.023438,0.027344
95310129000,0.999695,-0.015564,0.012573,0.012695,0.464844,0.011719,0.027344
95329987000,0.999695,-0.015930,0.012695,0.012695,0.105469,0.058594,0.027344
95350589000,0.999695,-0.016113,0.012756,0.012695,-0.011719,-0.046875,0.027344
95374680000,0.999695,-0.016479,0.012878,0.012756,0.320312,-0.039062,0.062500
95389862000,0.999695,-0.016785,0.013184,0.012817,-0.109375,-0.031250,-0.050781
95409773000,0.999695,-0.016846,0.013428,0.012939,0.347656,-0.031250,0.093750
95429904000,0.999695,-0.017578,0.013733,0.013123,0.679688,0.058594,-0.019531
95451544000,0.999695,-0.015930,0.015076,0.013184,0.066406,-0.199219,0.054688
95473416000,0.999695,-0.015930,0.014709,0.013367,-0.035156,0.312500,-0.941406
95489157000,0.999695,-0.015930,0.014526,0.013672,-0.125000,0.273438,-0.097656
95509262000,0.999695,-0.015808,0.014343,0.013977,0.058594,-0.109375,0.476562
95534545000,0.999695,-0.015564,0.014221,0.014221,-0.066406,0.199219,-0.019531
95548946000,0.999634,-0.015503,0.015137,0.014282,0.125000,-0.078125,-0.097656
95569091000,0.999634,-0.015320,0.016235,0.014404,0.539062,-0.039062,-0.210938
95588828000,0.999573,-0.015930,0.018738,0.013977,2.050781,0.734375,-0.558594
95611496000,0.999573,-0.014709,0.020386,0.014709,-0.148438,-1.027344,-0.933594
95628821000,0.999573,-0.012573,0.022522,0.015625,-0.738281,-0.308594,1.289062
95649135000,0.999451,-0.015076,0.022766,0.019409,2.406250,-2.062500,-2.351562
95668661000,0.999512,-0.015259,0.021912,0.015442,1.093750,-0.164062,1.058594
95689369000,0.999573,-0.015686,0.021729,0.013367,0.066406,-0.921875,1.902344
95714502000,0.999573,-0.016418,0.021118,0.013184,-0.773438,0.242188,0.179688
95728556000,0.999573,-0.017029,0.020569,0.013062,-0.183594,0.183594,0.148438
95748831000,0.999634,-0.015259,0.018005,0.010864,-0.652344,1.570312,-1.000000
95774139000,0.999756,-0.013428,0.016113,0.009521,-1.652344,-1.128906,4.667969
95788950000,0.999695,-0.014709,0.015869,0.009460,0.171875,-0.968750,2.253906
95808559000,0.999695,-0.015015,0.015686,0.010254,-1.136719,0.535156,2.062500
95828757000,0.999695,-0.014954,0.015015,0.011230,0.242188,-0.039062,-0.925781
95848614000,0.999695,-0.014587,0.014648,0.012146,0.082031,0.035156,-0.726562
95872810000,0.999695,-0.014404,0.014465,0.012878,-0.242188,-0.109375,0.195312
95887810000,0.999695,-0.014160,0.013977,0.012512,-0.585938,0.765625,-0.152344
95907963000,0.999756,-0.014404,0.013672,0.011902,-0.519531,0.265625,-0.113281
95928316000,0.999756,-0.014404,0.013245,0.011475,-0.371094,-0.117188,0.003906
95948731000,0.999756,-0.014282,0.012756,0.010986,-0.105469,-0.078125,-0.113281
95972963000,0.999756,-0.014282,0.012573,0.010498,-0.121094,0.042969,-0.074219
95989224000,0.999756,-0.014526,0.012085,0.009949,-0.347656,0.160156,-0.035156
96007897000,0.999756,-0.014771,0.011902,0.009521,-0.433594,0.082031,0.117188
96028611000,0.999817,-0.014587,0.011597,0.008972,-0.355469,0.089844,0.234375
96052278000,0.999817,-0.014648,0.011597,0.008545,-0.210938,0.160156,0.425781
96068069000,0.999756,-0.015747,0.011902,0.007874,-0.703125,0.519531,0.691406
96088042000,0.999756,-0.016052,0.012451,0.006897,0.187500,0.121094,0.234375
96107951000,0.999756,-0.016357,0.012451,0.005737,-0.332031,0.007812,-0.343750
96137922000,0.999756,-0.016235,0.012085,0.005005,-0.609375,-0.136719,0.042969
96147277000,0.999756,-0.016296,0.012024,0.005005,-0.378906,-0.070312,0.117188
96167814000,0.999756,-0.016235,0.011841,0.005188,-0.339844,-0.023438,0.042969
96187041000,0.999756,-0.016357,0.011658,0.005371,0.078125,0.082031,-0.027344
96208184000,0.999756,-0.016296,0.011597,0.005371,0.070312,0.007812,0.011719
96232046000,0.999817,-0.016235,0.011414,0.005249,-0.003906,0.082031,-0.027344
96247494000,0.999817,-0.016174,0.010803,0.005127,0.179688,0.046875,-0.066406
96267033000,0.999817,-0.015625,0.010498,0.005127,-0.328125,-0.062500,0.316406
96287766000,0.999817,-0.015442,0.010193,0.005127,-0.128906,0.191406,-0.027344
96312804000,0.999817,-0.015015,0.010010,0.005310,-0.289062,-0.007812,0.085938
96326885000,0.999817,-0.014832,0.010010,0.005432,-0.363281,0.136719,0.125000
96346611000,0.999817,-0.014954,0.009949,0.005310,-0.824219,0.214844,0.050781
96367038000,0.999817,-0.014893,0.009949,0.005188,-0.750000,-0.015625,-0.027344
96386891000,0.999817,-0.014954,0.009888,0.005188,-0.136719,-0.015625,-0.027344
96406809000,0.999817,-0.014893,0.009888,0.005188,-0.171875,0.023438,0.011719
96426646000,0.999817,-0.014893,0.009949,0.005188,-0.136719,0.058594,0.050781
96447033000,0.999817,-0.014893,0.009949,0.005188,-0.128906,0.023438,0.011719
96466241000,0.999817,-0.014893,0.009949,0.005188,-0.128906,0.058594,0.050781
96496205000,0.999817,-0.014832,0.009949,0.005188,-0.164062,0.058594,0.011719
96511383000,0.999817,-0.014832,0.009888,0.005249,-0.128906,0.058594,0.011719
96525987000,0.999817,-0.014771,0.009888,0.005249,-0.128906,0.023438,0.050781
96546057000,0.999817,-0.014771,0.009888,0.005249,-0.164062,0.058594,0.050781
96566341000,0.999817,-0.014771,0.009888,0.005249,-0.121094,0.058594,0.050781
96587244000,0.999817,-0.014771,0.009888,0.005249,-0.121094,0.058594,0.011719
96611414000,0.999817,-0.014771,0.009888,0.005249,-0.164062,0.023438,0.050781
96626554000,0.999817,-0.014771,0.009888,0.005249,-0.164062,0.058594,0.011719
96645940000,0.999817,-0.014771,0.009888,0.005249,-0.128906,0.023438,0.050781
96666385000,0.999817,-0.014771,0.009888,0.005188,-0.128906,0.058594,0.050781
96690860000,0.999817,-0.014771,0.009888,0.005249,-0.121094,0.058594,0.050781
96706986000,0.999817,-0.014771,0.009949,0.005188,-0.113281,0.058594,0.011719
96726222000,0.999817,-0.014771,0.009949,0.005188,-0.023438,0.011719,0.027344
96745881000,0.999817,-0.014771,0.009949,0.005249,0.011719,-0.023438,-0.011719
96776358000,0.999817,-0.014771,0.010010,0.005188,-0.023438,0.011719,0.027344
96789728000,0.999817,-0.014832,0.010010,0.005188,0.011719,0.011719,0.027344
96807177000,0.999817,-0.014832,0.010010,0.005188,-0.023438,0.011719,-0.011719
96825173000,0.999817,-0.014832,0.010071,0.005188,-0.023438,0.011719,-0.011719
96846109000,0.999817,-0.014954,0.010132,0.005127,-0.246094,0.050781,-0.011719
96865903000,0.999817,-0.014832,0.010193,0.005005,-0.238281,0.003906,-0.050781
96888040000,0.999817,-0.014771,0.010193,0.004822,-0.199219,0.003906,0.027344
96905631000,0.999817,-0.014771,0.010193,0.004639,0.121094,0.042969,-0.011719
96926126000,0.999817,-0.014771,0.010193,0.004517,0.082031,-0.003906,-0.011719
96945591000,0.999817,-0.014709,0.010193,0.004395,0.121094,-0.070312,-0.011719
96975005000,0.999817,-0.014771,0.010193,0.004333,0.082031,-0.031250,-0.011719
96985287000,0.999817,-0.014771,0.010193,0.004272,0.007812,0.003906,0.027344
97006209000,0.999817,-0.014832,0.010193,0.004211,0.000000,0.003906,-0.011719
97035230000,0.999817,-0.014893,0.010193,0.004211,0.113281,-0.031250,-0.011719
97045665000,0.999817,-0.014893,0.010193,0.004211,-0.007812,0.011719,0.027344
97065305000,0.999817,-0.014893,0.010132,0.004211,-0.007812,0.011719,0.027344
97085323000,0.999817,-0.014832,0.010132,0.004211,0.027344,-0.023438,0.027344
97106353000,0.999817,-0.014832,0.010193,0.004150,-0.007812,0.011719,-0.011719
97131309000,0.999817,-0.014832,0.010132,0.004150,0.019531,-0.023438,0.027344
97145463000,0.999817,-0.014832,0.010132,0.004150,-0.015625,0.011719,-0.011719
97165489000,0.999817,-0.014832,0.010132,0.004150,0.019531,-0.023438,0.027344
97185328000,0.999817,-0.014832,0.010071,0.004150,0.019531,0.011719,-0.011719
97216791000,0.999817,-0.014832,0.010071,0.004150,0.019531,-0.023438,0.027344
97225128000,0.999817,-0.014771,0.010071,0.004150,-0.015625,0.011719,0.027344
97245047000,0.999817,-0.014771,0.010071,0.004211,-0.015625,0.011719,0.027344
97265103000,0.999817,-0.014771,0.010071,0.004211,0.019531,0.011719,-0.011719
97294985000,0.999817,-0.014771,0.010071,0.004150,0.019531,0.011719,-0.011719
97305029000,0.999817,-0.014771,0.010071,0.004150,-0.015625,-0.023438,0.027344
97324850000,0.999817,-0.014771,0.010010,0.004150,0.019531,0.011719,0.027344
97344843000,0.999817,-0.014771,0.010010,0.004211,0.019531,0.011719,-0.011719
97365164000,0.999817,-0.014709,0.010010,0.004211,0.019531,0.011719,0.027344
97389166000,0.999817,-0.014709,0.010010,0.004211,0.011719,0.003906,-0.011719
97404531000,0.999817,-0.014771,0.010010,0.004211,0.011719,0.003906,-0.011719
97424769000,0.999817,-0.014709,0.010010,0.004211,-0.023438,0.003906,-0.011719
97444755000,0.999817,-0.014709,0.010071,0.004211,-0.023438,0.003906,-0.011719
97474386000,0.999817,-0.014709,0.010071,0.004211,0.011719,0.003906,0.027344
97488942000,0.999817,-0.014709,0.010071,0.004211,-0.023438,0.003906,-0.011719
97504613000,0.999817,-0.014709,0.010071,0.004211,0.011719,-0.031250,-0.011719
97538037000,0.999817,-0.014709,0.010071,0.004211,0.011719,0.011719,-0.011719
97543580000,0.999817,-0.014709,0.010071,0.004211,-0.023438,0.003906,-0.003906
97565248000,0.999817,-0.014648,0.010071,0.004150,-0.023438,0.003906,0.035156
97593272000,0.999817,-0.014648,0.010071,0.004150,0.011719,0.003906,0.035156
97613193000,0.999817,-0.014648,0.010132,0.004150,-0.023438,-0.003906,0.035156
97623477000,0.999817,-0.014709,0.010132,0.004150,-0.023438,-0.003906,0.035156
97644854000,0.999817,-0.014709,0.010132,0.004150,0.011719,-0.003906,0.035156
97664389000,0.999817,-0.014648,0.010132,0.004150,0.011719,-0.003906,-0.003906
97684774000,0.999817,-0.014709,0.010132,0.004150,-0.023438,-0.031250,-0.003906
97704699000,0.999817,-0.014648,0.010132,0.004150,0.011719,-0.031250,0.035156
97730223000,0.999817,-0.014709,0.010132,0.004150,0.011719,0.003906,0.035156
97744263000,0.999817,-0.014648,0.010071,0.004150,0.011719,0.003906,0.035156
97773620000,0.999817,-0.014648,0.010071,0.004150,-0.023438,0.011719,0.027344
97783184000,0.999817,-0.014648,0.010071,0.004211,0.011719,0.011719,-0.011719
97804338000,0.999817,-0.014648,0.010071,0.004211,-0.023438,0.011719,0.027344
97824499000,0.999817,-0.014709,0.010071,0.004211,0.011719,0.011719,-0.011719
97844486000,0.999817,-0.014709,0.010071,0.004211,-0.023438,0.011719,-0.011719
97873415000,0.999817,-0.014709,0.010071,0.004211,-0.023438,-0.031250,0.027344
97887986000,0.999817,-0.014709,0.010071,0.004211,-0.023438,0.003906,0.027344
97904134000,0.999817,-0.014648,0.010071,0.004272,0.011719,0.003906,0.027344
97935884000,0.999817,-0.014648,0.010071,0.004272,0.011719,0.003906,0.027344
97944079000,0.999817,-0.014648,0.010071,0.004272,-0.023438,0.003906,-0.011719
97968709000,0.999817,-0.014648,0.010071,0.004211,-0.023438,0.003906,-0.011719
97984121000,0.999817,-0.014648,0.010071,0.004211,0.011719,0.003906,-0.011719
98012981000,0.999817,-0.014648,0.010071,0.004211,0.011719,-0.003906,0.035156
98031881000,0.999817,-0.014587,0.010010,0.004272,0.011719,-0.003906,0.035156
98052373000,0.999817,-0.014587,0.010010,0.004272,-0.023438,-0.003906,0.035156
98076888000,0.999817,-0.014587,0.010010,0.004272,-0.023438,-0.003906,0.027344
98083350000,0.999817,-0.014587,0.010010,0.004272,-0.023438,-0.003906,0.027344
98111874000,0.999817,-0.014526,0.010010,0.004272,0.011719,-0.003906,0.027344
98123238000,0.999817,-0.014526,0.010010,0.004272,-0.023438,-0.003906,0.027344
98152396000,0.999817,-0.014526,0.010010,0.004272,-0.023438,-0.003906,0.027344
98171951000,0.999817,-0.014526,0.010010,0.004272,-0.015625,-0.003906,-0.011719
98191953000,0.999817,-0.014465,0.010010,0.004272,-0.015625,-0.003906,0.027344
98203309000,0.999817,-0.014526,0.010010,0.004272,0.019531,-0.039062,0.027344
98231688000,0.999817,-0.014465,0.010010,0.004272,-0.015625,0.003906,0.027344
98251378000,0.999817,-0.014465,0.010010,0.004272,0.019531,0.003906,-0.011719
98272350000,0.999817,-0.014465,0.010010,0.004272,0.019531,0.003906,0.027344
98283146000,0.999817,-0.014465,0.010010,0.004272,-0.015625,0.003906,0.027344
98317268000,0.999817,-0.014465,0.010010,0.004333,0.019531,0.003906,-0.011719
98332347000,0.999817,-0.014465,0.010010,0.004333,-0.015625,0.003906,0.027344
98351632000,0.999817,-0.014465,0.010010,0.004333,-0.015625,-0.031250,0.027344
98371190000,0.999817,-0.014465,0.010010,0.004333,-0.015625,0.003906,-0.011719
98396260000,0.999817,-0.014465,0.010010,0.004272,0.019531,0.003906,-0.011719
98411587000,0.999817,-0.014465,0.010010,0.004272,0.019531,0.003906,0.027344
98431361000,0.999817,-0.014465,0.010010,0.004333,0.019531,0.003906,-0.011719
98450973000,0.999817,-0.014465,0.010010,0.004333,-0.015625,0.003906,0.027344
98471178000,0.999817,-0.014465,0.010010,0.004333,-0.015625,0.003906,-0.011719
98490907000,0.999817,-0.014465,0.010010,0.004333,-0.015625,0.003906,-0.011719
98514263000,0.999817,-0.014465,0.010010,0.004333,0.019531,0.003906,0.027344
98530622000,0.999817,-0.014465,0.010010,0.004333,-0.015625,0.003906,0.027344
98561023000,0.999817,-0.014465,0.010010,0.004333,-0.015625,0.003906,0.027344
98574773000,0.999817,-0.014465,0.010010,0.004333,-0.015625,-0.031250,0.027344
98597612000,0.999817,-0.014465,0.010010,0.004333,0.019531,0.003906,-0.011719
98610662000,0.999817,-0.014465,0.010010,0.004333,-0.015625,0.003906,-0.003906
98630378000,0.999817,-0.014465,0.010010,0.004333,-0.015625,0.003906,0.035156
98658212000,0.999817,-0.014465,0.010010,0.004333,0.019531,0.003906,-0.003906
98670171000,0.999817,-0.014465,0.010010,0.004333,0.019531,0.003906,0.035156
98690368000,0.999817,-0.014465,0.010010,0.004333,0.019531,0.003906,0.035156
98714027000,0.999817,-0.014465,0.010010,0.004333,-0.015625,0.003906,0.035156
98730383000,0.999817,-0.014465,0.010010,0.004333,0.058594,0.003906,0.035156
98750732000,0.999817,-0.014282,0.010010,0.004395,0.585938,0.042969,0.109375
98770160000,0.999817,-0.014526,0.010132,0.004456,-0.148438,0.042969,0.027344
98801133000,0.999817,-0.014404,0.010071,0.004395,0.121094,0.121094,0.027344
98815296000,0.999817,-0.014526,0.010132,0.004333,0.273438,0.003906,-0.011719
98829690000,0.999817,-0.014587,0.010132,0.004211,-0.222656,-0.039062,-0.011719
98849646000,0.999817,-0.014648,0.010071,0.004211,0.003906,-0.078125,0.027344
98871963000,0.999817,-0.014587,0.010071,0.004211,0.042969,-0.039062,0.027344
98895316000,0.999817,-0.014526,0.010071,0.004211,-0.039062,-0.039062,-0.050781
98910318000,0.999817,-0.014526,0.010132,0.004211,-0.039062,-0.003906,0.027344
98930016000,0.999817,-0.014526,0.010132,0.004211,-0.156250,-0.039062,-0.011719
98950153000,0.999817,-0.014465,0.010071,0.004211,0.187500,-0.003906,0.027344
98976245000,0.999817,-0.014526,0.010071,0.004211,1.109375,0.035156,0.062500
98989916000,0.999817,-0.014343,0.010010,0.004028,0.570312,0.035156,-0.050781
99009563000,0.999817,-0.014465,0.010193,0.003418,0.187500,0.144531,-0.011719
99039683000,0.999817,-0.014221,0.010559,0.002258,-0.117188,0.265625,0.062500
99049344000,0.999817,-0.014526,0.010681,0.001892,0.113281,-0.195312,-0.128906
99069527000,0.999817,-0.014099,0.010925,0.001099,-0.078125,-0.039062,-0.320312
99089362000,0.999817,-0.014343,0.011108,0.000488,0.535156,0.105469,0.140625
99110449000,0.999817,-0.014954,0.011414,0.000000,0.535156,0.074219,-0.167969
99135079000,0.999817,-0.014893,0.011536,-0.000488,0.273438,0.160156,0.253906
99149078000,0.999817,-0.014771,0.011230,-0.000854,-0.039062,-0.031250,-0.816406
99169070000,0.999817,-0.014709,0.011047,-0.001099,-0.433594,0.003906,-0.128906
99188736000,0.999817,-0.014526,0.010925,-0.001282,-0.746094,-0.300781,-0.203125
99208782000,0.999817,-0.014343,0.010803,-0.001160,0.128906,-0.308594,-0.089844
99229504000,0.999817,-0.014282,0.010925,-0.000793,0.089844,0.074219,-0.011719
99252695000,0.999817,-0.014282,0.010803,-0.000671,0.281250,0.226562,-0.203125
99269521000,0.999817,-0.014282,0.010925,-0.000793,0.511719,-0.039062,0.101562
99299263000,0.999817,-0.014282,0.011108,-0.001770,-0.140625,0.265625,0.062500
99308866000,0.999817,-0.014221,0.011047,-0.002075,-0.062500,-0.230469,-0.050781
99328781000,0.999817,-0.014221,0.011108,-0.002502,0.050781,-0.003906,0.140625
99348606000,0.999817,-0.014160,0.011047,-0.002625,-0.027344,0.113281,0.484375
99378350000,0.999817,-0.014282,0.011108,-0.002930,0.320312,0.074219,-0.359375
99395633000,0.999817,-0.014160,0.010986,-0.002991,-0.253906,-0.039062,-0.167969
99408402000,0.999817,-0.014038,0.011047,-0.003113,-0.332031,-0.230469,-0.050781
99428860000,0.999817,-0.014038,0.010986,-0.002930,0.203125,0.035156,-0.433594
99449411000,0.999817,-0.013977,0.010986,-0.002563,-0.062500,-0.195312,-0.011719
99477419000,0.999817,-0.013550,0.011047,-0.002197,0.457031,0.304688,0.445312
99488259000,0.999817,-0.013916,0.011169,-0.002258,-0.308594,0.640625,0.628906
99508179000,0.999817,-0.013733,0.011108,-0.002625,-0.269531,0.066406,-0.136719
99528397000,0.999817,-0.013794,0.011169,-0.002991,-0.308594,-0.085938,0.324219
99552539000,0.999817,-0.013672,0.011108,-0.002930,-0.500000,0.027344,0.093750
99567949000,0.999817,-0.013550,0.011108,-0.002686,-0.156250,-0.011719,0.171875
99588308000,0.999817,-0.013550,0.011292,-0.002808,0.113281,0.105469,0.132812
99607830000,0.999817,-0.013489,0.011169,-0.003357,-0.308594,-0.125000,-0.058594
99638056000,0.999817,-0.013611,0.011414,-0.004822,-0.269531,0.035156,-0.136719
99653195000,0.999817,-0.013611,0.011536,-0.005371,-0.492188,-0.039062,0.019531
99667881000,0.999817,-0.013550,0.011597,-0.005920,-0.761719,-0.078125,0.093750
99697977000,0.999817,-0.013611,0.011597,-0.005859,-0.378906,-0.011719,0.093750
99713314000,0.999817,-0.013428,0.011536,-0.005676,0.003906,-0.164062,-0.097656
99727575000,0.999817,-0.013550,0.011597,-0.005371,0.082031,0.066406,0.054688
99747817000,0.999817,-0.013367,0.011475,-0.005188,0.042969,0.027344,-0.019531
99767369000,0.999817,-0.013489,0.011780,-0.005554,-0.035156,0.105469,-0.019531
99790131000,0.999817,-0.013367,0.011719,-0.005859,-0.226562,-0.085938,-0.097656
99812510000,0.999817,-0.013428,0.011719,-0.006165,0.082031,0.027344,0.093750
99827413000,0.999817,-0.013306,0.011780,-0.006409,0.234375,-0.011719,0.019531
99848216000,0.999817,-0.013611,0.012024,-0.006836,0.242188,0.105469,0.054688
99877013000,0.999817,-0.013489,0.012024,-0.007019,-0.683594,-0.046875,0.054688
99887162000,0.999817,-0.013428,0.012024,-0.006775,-0.683594,-0.046875,-0.097656
99907303000,0.999817,-0.013550,0.012024,-0.006409,-0.753906,-0.046875,-0.097656
99927152000,0.999817,-0.013550,0.012024,-0.006409,0.011719,-0.011719,-0.019531
99948673000,0.999817,-0.013550,0.012024,-0.006409,0.011719,0.027344,0.054688
99971140000,0.999817,-0.013550,0.012085,-0.006409,-0.027344,0.027344,0.019531
99986631000,0.999817,-0.013550,0.012085,-0.006409,-0.027344,-0.011719,0.019531
100006845000,0.999817,-0.013611,0.012085,-0.006409,-0.019531,-0.003906,-0.019531
100026570000,0.999817,-0.013611,0.012146,-0.006409,-0.019531,-0.003906,-0.019531
100056626000,0.999817,-0.013611,0.012146,-0.006409,-0.019531,-0.003906,0.019531
100071502000,0.999817,-0.013611,0.012146,-0.006409,-0.019531,-0.003906,0.019531
100086485000,0.999817,-0.013672,0.012146,-0.006409,-0.019531,-0.003906,-0.019531
100106221000,0.999817,-0.013672,0.012146,-0.006409,-0.019531,-0.003906,-0.019531
100126169000,0.999817,-0.013672,0.012146,-0.006409,-0.019531,-0.003906,0.019531
100157141000,0.999817,-0.013672,0.012146,-0.006409,-0.019531,-0.003906,0.054688
100166154000,0.999817,-0.013672,0.012146,-0.006409,-0.019531,-0.003906,-0.019531
100188080000,0.999817,-0.013672,0.012146,-0.006409,-0.011719,-0.003906,-0.011719
100205922000,0.999817,-0.013672,0.012085,-0.006409,-0.011719,-0.003906,-0.011719
100227360000,0.999817,-0.013672,0.012085,-0.006348,-0.011719,-0.003906,-0.011719
100256144000,0.999817,-0.013672,0.012085,-0.006348,-0.011719,-0.003906,-0.011719
100266076000,0.999817,-0.013672,0.012085,-0.006348,-0.003906,0.035156,0.027344
100286155000,0.999817,-0.013672,0.012085,-0.006348,-0.003906,-0.003906,0.027344
100307036000,0.999817,-0.013733,0.012085,-0.006348,-0.003906,-0.003906,0.027344
100329855000,0.999817,-0.013672,0.012085,-0.006348,0.035156,0.035156,-0.011719
100346011000,0.999817,-0.013672,0.012085,-0.006348,-0.003906,-0.003906,-0.011719
100366136000,0.999817,-0.013672,0.012085,-0.006348,-0.003906,-0.003906,-0.011719
100386089000,0.999817,-0.013672,0.012085,-0.006348,-0.039062,-0.003906,0.019531
100406158000,0.999817,-0.013672,0.012085,-0.006348,-0.003906,-0.003906,0.019531
100429518000,0.999817,-0.013672,0.012085,-0.006348,-0.003906,-0.003906,0.019531
100446129000,0.999817,-0.013672,0.012085,-0.006348,-0.003906,0.035156,0.019531
100466065000,0.999817,-0.013672,0.012085,-0.006348,-0.003906,-0.003906,-0.019531
100486827000,0.999817,-0.013672,0.012085,-0.006348,-0.003906,-0.003906,-0.019531
100505828000,0.999817,-0.013672,0.012085,-0.006409,-0.003906,-0.003906,0.019531
100535308000,0.999817,-0.013672,0.012085,-0.006409,-0.039062,-0.011719,-0.019531
100550889000,0.999817,-0.013672,0.012085,-0.006409,-0.003906,-0.011719,0.019531
100565784000,0.999817,-0.013672,0.012085,-0.006409,-0.003906,0.027344,0.019531
100585652000,0.999817,-0.013672,0.012085,-0.006409,0.035156,-0.011719,0.019531
100605682000,0.999817,-0.013672,0.012085,-0.006348,-0.003906,0.027344,0.019531
100625973000,0.999817,-0.013672,0.012085,-0.006348,-0.003906,-0.011719,-0.019531
100649986000,0.999817,-0.013611,0.012085,-0.006348,-0.003906,-0.011719,-0.019531
100665417000,0.999817,-0.013611,0.012085,-0.006348,-0.003906,-0.011719,0.019531
100685934000,0.999817,-0.013611,0.012085,-0.006348,-0.003906,-0.011719,0.019531
100706416000,0.999817,-0.013611,0.012085,-0.006348,-0.039062,0.027344,0.019531
100729365000,0.999817,-0.013611,0.012085,-0.006348,-0.003906,0.027344,0.019531
100745446000,0.999817,-0.013672,0.012085,-0.006348,-0.003906,-0.011719,-0.019531
100765496000,0.999817,-0.013672,0.012085,-0.006348,0.035156,-0.011719,-0.019531
100785455000,0.999817,-0.013672,0.012085,-0.006348,-0.003906,-0.011719,0.054688
100805656000,0.999817,-0.013672,0.012085,-0.006348,-0.003906,0.027344,-0.019531
100826380000,0.999817,-0.013733,0.012085,-0.006348,-0.003906,-0.011719,-0.011719
100854868000,0.999817,-0.013733,0.012146,-0.006348,-0.003906,0.027344,-0.011719
100870192000,0.999817,-0.013733,0.012085,-0.006348,-0.003906,-0.011719,-0.011719
100885014000,0.999817,-0.013794,0.012085,-0.006348,-0.003906,-0.011719,0.027344
100906174000,0.999817,-0.013794,0.012146,-0.006348,0.035156,-0.011719,-0.011719
100925044000,0.999817,-0.013794,0.012146,-0.006348,-0.003906,-0.011719,-0.011719
100954344000,0.999817,-0.013855,0.012146,-0.006348,-0.003906,-0.011719,-0.011719
100967929000,0.999817,-0.013794,0.012146,-0.006348,-0.003906,-0.011719,-0.011719
100984938000,0.999817,-0.013794,0.012146,-0.006348,-0.003906,-0.011719,0.027344
101007182000,0.999817,-0.013794,0.012146,-0.006348,-0.003906,-0.011719,-0.011719
101034138000,0.999817,-0.013794,0.012146,-0.006409,-0.003906,-0.011719,-0.011719
101044179000,0.999817,-0.013794,0.012146,-0.006348,-0.003906,-0.011719,-0.011719
101077142000,0.999817,-0.013733,0.012146,-0.006409,-0.003906,-0.011719,-0.011719
101084349000,0.999817,-0.013794,0.012146,-0.006409,0.035156,-0.011719,0.027344
101113870000,0.999817,-0.013794,0.012146,-0.006409,-0.003906,-0.011719,-0.011719
101134164000,0.999817,-0.013794,0.012146,-0.006409,-0.003906,-0.046875,-0.011719
101144002000,0.999817,-0.013794,0.012146,-0.006409,-0.003906,-0.003906,-0.011719
101164743000,0.999817,-0.013733,0.012146,-0.006409,-0.011719,-0.003906,-0.011719
101184748000,0.999817,-0.013733,0.012146,-0.006470,-0.011719,-0.003906,0.027344
101204817000,0.999817,-0.013733,0.012146,-0.006470,-0.046875,-0.003906,-0.011719
101230318000,0.999817,-0.013733,0.012146,-0.006470,0.027344,-0.003906,0.027344
101244461000,0.999817,-0.013733,0.012146,-0.006470,-0.039062,-0.003906,0.027344
101264411000,0.999817,-0.013733,0.012146,-0.006409,-0.003906,-0.003906,0.027344
101284643000,0.999817,-0.013733,0.012146,-0.006409,-0.003906,-0.003906,-0.011719
101304392000,0.999817,-0.013733,0.012146,-0.006409,-0.003906,-0.003906,0.027344
101324696000,0.999817,-0.013733,0.012146,-0.006409,-0.003906,-0.003906,-0.011719
101344380000,0.999817,-0.013733,0.012146,-0.006409,-0.003906,-0.003906,-0.003906
101370831000,0.999817,-0.013733,0.012146,-0.006409,-0.003906,-0.003906,0.035156
101384154000,0.999817,-0.013733,0.012146,-0.006409,-0.003906,-0.003906,0.027344
101404715000,0.999817,-0.013733,0.012146,-0.006409,-0.003906,-0.003906,0.027344
101431415000,0.999817,-0.013733,0.012146,-0.006409,-0.003906,-0.003906,0.027344
101444253000,0.999817,-0.013733,0.012146,-0.006409,-0.003906,-0.003906,0.027344
101464571000,0.999817,-0.013733,0.012146,-0.006409,-0.003906,-0.003906,-0.011719
101493258000,0.999817,-0.013733,0.012146,-0.006409,-0.003906,-0.003906,-0.011719
101508895000,0.999817,-0.013733,0.012146,-0.006409,-0.003906,-0.003906,0.027344
101533548000,0.999817,-0.013733,0.012146,-0.006409,-0.003906,-0.003906,0.027344
101553148000,0.999817,-0.013733,0.012146,-0.006409,-0.003906,-0.003906,-0.011719
101569604000,0.999817,-0.013733,0.012146,-0.006409,-0.003906,-0.003906,0.027344
101584174000,0.999817,-0.013733,0.012146,-0.006409,-0.003906,-0.003906,0.027344
101613025000,0.999817,-0.013733,0.012146,-0.006409,-0.003906,-0.003906,-0.011719
101632282000,0.999817,-0.013733,0.012146,-0.006409,-0.003906,-0.003906,-0.011719
101652988000,0.999817,-0.013733,0.012146,-0.006409,-0.003906,0.035156,-0.011719
101674657000,0.999817,-0.013733,0.012146,-0.006409,-0.003906,-0.003906,0.027344
101698585000,0.999817,-0.013733,0.012146,-0.006409,-0.003906,-0.003906,-0.003906
101712399000,0.999817,-0.013733,0.012146,-0.006409,-0.003906,-0.003906,-0.003906
101732319000,0.999817,-0.013733,0.012146,-0.006409,-0.003906,0.027344,-0.003906
101757654000,0.999817,-0.013733,0.012146,-0.006409,-0.003906,-0.011719,-0.003906
101772422000,0.999817,-0.013733,0.012146,-0.006409,-0.003906,-0.011719,-0.003906
101792127000,0.999817,-0.013733,0.012146,-0.006409,-0.039062,0.027344,-0.003906
101811953000,0.999817,-0.013733,0.012146,-0.006409,-0.003906,0.027344,0.035156
101833909000,0.999817,-0.013733,0.012146,-0.006409,-0.003906,-0.011719,-0.003906
101852815000,0.999817,-0.013733,0.012146,-0.006409,-0.003906,-0.011719,0.035156
101872187000,0.999817,-0.013733,0.012146,-0.006409,-0.003906,-0.011719,-0.003906
101891372000,0.999817,-0.013733,0.012146,-0.006409,-0.003906,-0.011719,-0.003906
101918851000,0.999817,-0.013733,0.012146,-0.006409,-0.003906,-0.011719,-0.003906
101931823000,0.999817,-0.013733,0.012146,-0.006409,-0.003906,-0.011719,0.035156
101951808000,0.999817,-0.013733,0.012146,-0.006409,-0.003906,-0.011719,-0.042969
101977639000,0.999817,-0.013733,0.012146,-0.006409,-0.003906,-0.011719,-0.003906
101992174000,0.999817,-0.013733,0.012146,-0.006409,-0.003906,-0.011719,0.035156
102011727000,0.999817,-0.013733,0.012146,-0.006409,-0.003906,-0.011719,-0.003906
102034661000,0.999817,-0.013733,0.012146,-0.006409,-0.003906,-0.011719,0.035156
102051282000,0.999817,-0.013733,0.012146,-0.006409,-0.003906,-0.011719,-0.003906
102071483000,0.999817,-0.013733,0.012146,-0.006409,-0.003906,-0.011719,-0.003906
102091914000,0.999817,-0.013733,0.012146,-0.006409,-0.003906,-0.011719,0.035156
102118077000,0.999817,-0.013733,0.012146,-0.006409,-0.003906,-0.011719,-0.003906
102130915000,0.999817,-0.013733,0.012146,-0.006409,-0.003906,-0.011719,0.035156
102151162000,0.999817,-0.013733,0.012146,-0.006409,-0.003906,-0.011719,0.035156
102171190000,0.999817,-0.013733,0.012146,-0.006409,-0.003906,-0.011719,0.027344
102195374000,0.999817,-0.013733,0.012146,-0.006409,-0.003906,-0.011719,-0.011719
102211891000,0.999817,-0.013733,0.012146,-0.006409,-0.003906,-0.011719,-0.011719
102231319000,0.999817,-0.013733,0.012146,-0.006409,0.035156,-0.011719,0.027344
102257126000,0.999817,-0.013733,0.012329,-0.005920,0.519531,-0.003906,0.101562
102270950000,0.999817,-0.013794,0.012390,-0.005554,-0.062500,-0.039062,-0.011719
102291531000,0.999817,-0.013733,0.012451,-0.005188,0.082031,-0.039062,-0.011719
102310859000,0.999817,-0.013733,0.012512,-0.004822,1.726562,-0.003906,-0.011719
102337416000,0.999817,-0.013794,0.012634,-0.004822,1.078125,0.113281,-0.089844
102350907000,0.999817,-0.013550,0.012634,-0.005310,0.464844,0.226562,-0.203125
102371659000,0.999817,-0.013672,0.012695,-0.006104,0.378906,0.074219,0.523438
102394770000,0.999817,-0.013489,0.012878,-0.007080,0.570312,0.035156,0.132812
102410820000,0.999817,-0.013489,0.013123,-0.008118,0.531250,0.074219,0.101562
102430339000,0.999756,-0.013550,0.013184,-0.008606,0.410156,-0.117188,0.402344
102450306000,0.999756,-0.013428,0.013062,-0.008911,0.562500,-0.308594,-0.019531
102474379000,0.999756,-0.013367,0.013184,-0.009277,0.488281,0.035156,0.402344
102490937000,0.999756,-0.013306,0.013062,-0.009827,0.250000,-0.003906,0.132812
102510371000,0.999756,-0.013123,0.013123,-0.010742,0.058594,-0.003906,0.054688
102529905000,0.999756,-0.013184,0.013000,-0.011658,-0.132812,0.152344,-0.019531
102560585000,0.999756,-0.013184,0.013000,-0.012512,0.050781,-0.195312,-0.480469
102569973000,0.999756,-0.013123,0.013123,-0.012756,-0.371094,-0.316406,0.246094
102590402000,0.999756,-0.013062,0.013062,-0.013184,-0.332031,-0.164062,0.019531
102609717000,0.999756,-0.013184,0.013062,-0.013489,-0.371094,-0.003906,0.019531
102630579000,0.999756,-0.013367,0.013062,-0.013794,-0.300781,0.035156,0.125000
102653673000,0.999695,-0.013367,0.013000,-0.014221,-0.914062,0.113281,-0.218750
102670236000,0.999695,-0.013184,0.012878,-0.014832,-0.722656,0.035156,0.085938
102690360000,0.999695,-0.013428,0.013000,-0.015381,-0.992188,0.113281,-0.066406
102709825000,0.999695,-0.013306,0.012817,-0.015930,-1.414062,-0.003906,-0.335938
102729844000,0.999695,-0.013367,0.012878,-0.016174,-2.027344,-0.195312,-0.027344
102753561000,0.999695,-0.013245,0.012756,-0.016113,-1.718750,-0.078125,-0.105469
102769285000,0.999695,-0.013306,0.012878,-0.016113,-0.109375,-0.003906,-0.027344
