timestamp_ns,qw,qx,qy,qz,ax,ay,az,t_sec,dist_83a8d,dist_e05a1,dist_48e72
72052499000,0.999878,-0.008606,0.013611,0.0,0.011719,0.027344,-0.011719,0.0,,,
72068231000,0.999878,-0.008606,0.013611,0.0,-0.027344,-0.011719,-0.011719,0.015732,2.67,4.98,5.96
72096103000,0.999878,-0.008606,0.013611,0.0,-0.027344,-0.011719,0.027344,0.043604,,,
72103292000,0.999878,-0.008606,0.013611,0.0,-0.027344,0.027344,0.027344,0.050793,,,
72132496000,0.999878,-0.008606,0.013611,0.0,0.011719,-0.011719,-0.011719,0.079997,,,
72152761000,0.999878,-0.008606,0.013611,0.0,-0.027344,-0.011719,0.027344,0.100262,,,
72177075000,0.999878,-0.008606,0.013611,0.0,-0.027344,0.027344,-0.011719,0.124576,,,
72192146000,0.999878,-0.008606,0.013611,0.0,-0.027344,-0.011719,-0.011719,0.139647,,,
72211956000,0.999878,-0.008606,0.013611,0.0,-0.027344,-0.011719,-0.011719,0.159457,,,
72235508000,0.999878,-0.008606,0.013611,0.0,0.011719,0.027344,-0.011719,0.183009,,,
72256979000,0.999878,-0.008606,0.013611,0.0,-0.027344,-0.011719,-0.011719,0.20448,,,
72272318000,0.999878,-0.008606,0.013611,0.0,-0.019531,-0.011719,-0.011719,0.219819,2.71,4.92,5.92
72292084000,0.999878,-0.008606,0.013611,0.0,0.019531,0.027344,0.027344,0.239585,,,
72314254000,0.999878,-0.008606,0.013611,0.0,-0.019531,-0.011719,-0.011719,0.261755,,,
72332260000,0.999878,-0.008606,0.013611,0.0,-0.027344,-0.011719,-0.011719,0.279761,,,
72351658000,0.999878,-0.008606,0.013611,0.0,0.011719,-0.011719,0.027344,0.299159,,,
72372210000,0.999878,-0.008606,0.013611,0.0,0.011719,-0.011719,0.027344,0.319711,,,
72395536000,0.999878,-0.008606,0.013611,0.0,0.011719,-0.011719,-0.011719,0.343037,,,
72412339000,0.999878,-0.008606,0.013611,0.0,-0.027344,-0.003906,-0.011719,0.35984,,,
72438359000,0.999878,-0.008606,0.013611,0.0,0.011719,0.035156,-0.019531,0.38586,,,
72452259000,0.999878,-0.008606,0.013611,0.0,0.011719,0.035156,0.019531,0.39976,,,
72471477000,0.999878,-0.008606,0.013611,0.0,0.011719,0.035156,-0.019531,0.418978,2.65,4.97,5.91
72492935000,0.999878,-0.008606,0.013611,0.0,0.011719,-0.003906,-0.019531,0.440436,,,
72511523000,0.999878,-0.008606,0.013611,0.0,-0.027344,-0.003906,-0.019531,0.459024,,,
72531315000,0.999878,-0.008606,0.013611,0.0,0.011719,0.027344,-0.019531,0.478816,,,
72557924000,0.999878,-0.008606,0.013611,0.0,0.011719,0.027344,-0.011719,0.505425,,,
72571546000,0.999878,-0.008606,0.013611,0.0,0.011719,-0.011719,0.027344,0.519047,,,
72591946000,0.999878,-0.008606,0.013611,0.0,0.011719,-0.011719,-0.011719,0.539447,,,
72613146000,0.999878,-0.008606,0.013611,0.0,0.011719,0.027344,0.027344,0.560647,,,
72637411000,0.999878,-0.008606,0.013611,0.0,0.011719,-0.011719,-0.011719,0.584912,,,
72650843000,0.999878,-0.008606,0.013611,0.0,0.011719,-0.011719,0.027344,0.598344,,,
72671277000,0.999878,-0.008606,0.013611,0.0,-0.027344,-0.011719,-0.011719,0.618778,2.66,4.96,5.9
72691393000,0.999878,-0.008606,0.013611,0.0,0.011719,-0.011719,-0.011719,0.638894,,,
72713967000,0.999878,-0.008606,0.013611,0.0,0.011719,-0.011719,0.027344,0.661468,,,
72730599000,0.999878,-0.008606,0.013611,0.0,-0.027344,-0.003906,-0.011719,0.6781,,,
72752453000,0.999878,-0.008606,0.013611,0.0,0.011719,-0.003906,0.027344,0.699954,,,
72771129000,0.999878,-0.008606,0.013611,0.0,0.011719,-0.003906,-0.011719,0.71863,,,
72796268000,0.999878,-0.008606,0.013611,0.0,0.011719,0.035156,-0.011719,0.743769,,,
72810418000,0.999878,-0.008606,0.013611,0.0,0.011719,-0.003906,0.027344,0.757919,,,
72830339000,0.999878,-0.008606,0.013611,0.0,0.011719,-0.003906,-0.011719,0.77784,,,
72851177000,0.999878,-0.008606,0.013611,0.0,-0.027344,-0.003906,-0.011719,0.798678,,,
72875095000,0.999878,-0.008606,0.013611,0.0,0.011719,-0.003906,-0.011719,0.822596,2.7,4.98,5.97
72890457000,0.999878,-0.008606,0.013611,0.0,0.011719,-0.003906,-0.011719,0.837958,,,
72910656000,0.999878,-0.008606,0.013611,0.0,0.003906,-0.003906,-0.011719,0.858157,,,
72930236000,0.999878,-0.008606,0.013611,0.0,-0.035156,-0.003906,-0.011719,0.877737,,,
72956010000,0.999878,-0.008606,0.013611,0.0,-0.035156,0.035156,-0.011719,0.903511,,,
72970478000,0.999878,-0.008606,0.013611,0.0,0.003906,0.035156,-0.011719,0.917979,,,
72990202000,0.999878,-0.008606,0.013611,0.0,-0.035156,-0.003906,-0.011719,0.937703,,,
73011923000,0.999878,-0.008606,0.013611,0.0,-0.035156,-0.003906,0.027344,0.959424,,,
73035308000,0.999878,-0.008606,0.013611,0.0,0.011719,-0.003906,0.027344,0.982809,,,
73051555000,0.999878,-0.008606,0.013611,0.0,-0.027344,-0.003906,0.027344,0.999056,,,
73069777000,0.999878,-0.008606,0.013611,0.0,0.011719,-0.003906,0.027344,1.017278,2.71,4.97,5.97
73099747000,0.999878,-0.008606,0.013611,0.0,0.011719,-0.003906,-0.011719,1.047248,,,
73109796000,0.999878,-0.008606,0.013611,0.0,0.011719,-0.003906,-0.011719,1.057297,,,
73129969000,0.999878,-0.008606,0.013611,0.0,0.011719,-0.003906,-0.011719,1.07747,,,
73149556000,0.999878,-0.008606,0.013611,0.0,-0.027344,-0.003906,0.027344,1.097057,,,
73179749000,0.999878,-0.008606,0.013611,0.0,-0.027344,-0.003906,0.027344,1.12725,,,
73190113000,0.999878,-0.008606,0.013611,0.0,-0.027344,-0.003906,-0.011719,1.137614,,,
73210035000,0.999878,-0.008606,0.013611,0.0,-0.027344,0.035156,0.027344,1.157536,,,
73230354000,0.999878,-0.008606,0.013611,0.0,0.011719,-0.003906,0.027344,1.177855,,,
73249522000,0.999878,-0.008606,0.013611,0.0,0.011719,-0.003906,0.027344,1.197023,,,
73273017000,0.999878,-0.008606,0.013611,0.0,0.011719,0.035156,0.027344,1.220518,2.72,4.98,5.97
73289582000,0.999878,-0.008606,0.013611,0.0,-0.027344,0.035156,0.027344,1.237083,,,
73309987000,0.999878,-0.008606,0.013611,0.0,-0.027344,-0.003906,0.019531,1.257488,,,
73329708000,0.999878,-0.008606,0.013611,0.0,0.011719,-0.003906,-0.019531,1.277209,,,
73354283000,0.999878,-0.008606,0.013611,0.0,0.011719,0.035156,-0.019531,1.301784,,,
73368930000,0.999878,-0.008606,0.013611,0.0,0.011719,-0.003906,0.019531,1.316431,,,
73389098000,0.999878,-0.008606,0.013611,0.0,0.011719,-0.003906,-0.019531,1.336599,,,
73408619000,0.999878,-0.008606,0.013611,0.0,0.011719,0.035156,-0.019531,1.35612,,,
73428755000,0.999878,-0.008606,0.013611,0.0,0.011719,-0.003906,-0.019531,1.376256,,,
73448808000,0.999878,-0.008606,0.013611,0.0,-0.027344,-0.003906,0.019531,1.396309,,,
73478427000,0.999878,-0.008606,0.013611,0.0,0.011719,-0.003906,0.019531,1.425928,2.67,4.92,5.97
73488563000,0.999878,-0.008606,0.013611,0.0,0.011719,-0.003906,0.019531,1.436064,,,
73508545000,0.999878,-0.008606,0.013611,0.0,0.011719,-0.003906,-0.019531,1.456046,,,
73530425000,0.999878,-0.008606,0.013611,0.0,-0.027344,-0.003906,-0.019531,1.477926,,,
73558658000,0.999878,-0.008606,0.013611,0.0,0.011719,-0.003906,0.019531,1.506159,,,
73575409000,0.999878,-0.008606,0.013611,0.0,0.011719,0.035156,0.019531,1.52291,,,
73588663000,0.999878,-0.008606,0.013611,0.0,0.011719,-0.003906,-0.019531,1.536164,,,
73609092000,0.999878,-0.008606,0.013611,0.0,0.011719,-0.003906,-0.019531,1.556593,,,
73638030000,0.999878,-0.008606,0.013611,0.0,0.003906,-0.003906,-0.019531,1.585531,,,
73648395000,0.999878,-0.008606,0.013611,0.0,-0.035156,-0.003906,-0.019531,1.595896,,,
73668478000,0.999878,-0.008606,0.013611,0.0,0.003906,-0.003906,-0.019531,1.615979,2.72,4.98,6.0
73688172000,0.999878,-0.008606,0.013611,0.0,0.003906,-0.003906,0.019531,1.635673,,,
73708115000,0.999878,-0.008606,0.013611,0.0,-0.035156,0.035156,-0.019531,1.655616,,,
73738564000,0.999878,-0.008606,0.013611,0.0,-0.035156,-0.003906,-0.011719,1.686065,,,
73748046000,0.999878,-0.008606,0.013611,0.0,0.003906,-0.003906,-0.011719,1.695547,,,
73768735000,0.999878,-0.008606,0.013611,0.0,0.003906,0.035156,-0.011719,1.716236,,,
73789555000,0.999878,-0.008606,0.013611,0.0,-0.035156,0.035156,-0.011719,1.737056,,,
73817973000,0.999878,-0.008606,0.013611,0.0,-0.027344,-0.003906,0.027344,1.765474,,,
73834294000,0.999878,-0.008606,0.013611,0.0,0.011719,-0.003906,-0.011719,1.781795,,,
73847382000,0.999878,-0.008606,0.013611,0.0,-0.027344,-0.003906,-0.011719,1.794883,,,
73870293000,0.999878,-0.008606,0.013611,0.0,-0.027344,0.035156,-0.011719,1.817794,2.68,4.98,6.01
73887453000,0.999878,-0.008606,0.013611,0.0,0.011719,-0.003906,-0.011719,1.834954,,,
73917387000,0.999878,-0.008606,0.013611,0.0,0.011719,0.035156,-0.011719,1.864888,,,
73933612000,0.999878,-0.008606,0.013611,0.0,0.011719,-0.003906,0.027344,1.881113,,,
73948337000,0.999878,-0.008606,0.013611,0.0,0.011719,-0.003906,0.027344,1.895838,,,
73967794000,0.999878,-0.008606,0.013611,0.0,0.011719,-0.003906,0.027344,1.915295,,,
73988271000,0.999878,-0.008606,0.013611,0.0,-0.027344,-0.003906,-0.011719,1.935772,,,
74012737000,0.999878,-0.008606,0.013611,0.0,-0.027344,-0.003906,-0.011719,1.960238,,,
74027450000,0.999878,-0.008606,0.013611,0.0,0.011719,-0.003906,-0.011719,1.974951,,,
74048500000,0.999878,-0.008606,0.013611,0.0,0.011719,-0.003906,0.027344,1.996001,,,
74069395000,0.999878,-0.008606,0.013611,0.0,0.011719,-0.003906,0.027344,2.016896,2.71,5.0,5.99
74092861000,0.999878,-0.008606,0.013611,0.0,0.011719,0.035156,-0.011719,2.040362,,,
74107385000,0.999878,-0.008606,0.013611,0.0,-0.027344,-0.003906,0.027344,2.054886,,,
74127412000,0.999878,-0.008606,0.013611,0.0,0.011719,-0.003906,-0.011719,2.074913,,,
74147410000,0.999878,-0.008606,0.013611,0.0,0.011719,-0.003906,-0.011719,2.094911,,,
74178864000,0.999878,-0.008606,0.013611,0.0,0.011719,-0.003906,-0.011719,2.126365,,,
74186962000,0.999878,-0.008606,0.013611,0.0,0.011719,-0.003906,-0.011719,2.134463,,,
74207008000,0.999878,-0.008606,0.013611,0.0,-0.027344,0.035156,-0.011719,2.154509,,,
74227074000,0.999878,-0.008606,0.013611,0.0,0.011719,-0.003906,-0.011719,2.174575,,,
74256458000,0.999878,-0.008606,0.013611,0.0,-0.027344,0.035156,-0.011719,2.203959,,,
74266285000,0.999878,-0.008606,0.013611,0.0,-0.027344,0.035156,-0.011719,2.213786,,,
74286669000,0.999878,-0.008606,0.013611,0.0,0.011719,-0.003906,-0.011719,2.23417,,,
74306958000,0.999878,-0.008606,0.013611,0.0,-0.027344,0.035156,0.027344,2.254459,,,
74327209000,0.999878,-0.008606,0.013611,0.0,-0.027344,-0.003906,-0.011719,2.27471,,,
74350285000,0.999878,-0.008606,0.013611,0.0,-0.027344,-0.003906,-0.011719,2.297786,,,
74366484000,0.999878,-0.008606,0.013611,0.0,-0.027344,-0.003906,0.027344,2.313985,,,
74386468000,0.999878,-0.008606,0.013611,0.0,-0.027344,-0.003906,-0.011719,2.333969,,,
74407239000,0.999878,-0.008606,0.013611,0.0,0.011719,-0.003906,0.027344,2.35474,,,
74429946000,0.999878,-0.008606,0.013611,0.0,-0.027344,-0.003906,0.027344,2.377447,,,
74445819000,0.999878,-0.008606,0.013611,0.0,-0.027344,0.035156,0.027344,2.39332,,,
74466437000,0.999878,-0.008606,0.013611,0.0,-0.027344,0.035156,-0.011719,2.413938,,,
74486505000,0.999878,-0.008606,0.013611,0.0,-0.019531,0.035156,0.027344,2.434006,,,
74506655000,0.999878,-0.008606,0.013611,0.0,-0.019531,-0.003906,-0.011719,2.454156,,,
74530348000,0.999878,-0.008606,0.013611,0.0,0.019531,-0.003906,0.027344,2.477849,,,
74546224000,0.999878,-0.008606,0.013611,0.0,0.019531,-0.003906,-0.011719,2.493725,,,
74565790000,0.999878,-0.008606,0.013611,0.0,-0.019531,-0.003906,-0.011719,2.513291,,,
74587528000,0.999878,-0.008606,0.013611,0.0,0.019531,0.035156,-0.011719,2.535029,,,
74615492000,0.999878,-0.008606,0.013611,0.0,0.019531,0.035156,0.027344,2.562993,,,
74626059000,0.999878,-0.008606,0.013611,0.0,0.019531,-0.003906,-0.011719,2.57356,,,
74645652000,0.999878,-0.008606,0.013611,0.0,-0.019531,-0.003906,-0.011719,2.593153,,,
74665657000,0.999878,-0.008606,0.013611,0.0,0.019531,-0.003906,-0.011719,2.613158,,,
74695246000,0.999878,-0.008606,0.013611,0.0,0.011719,-0.003906,0.027344,2.642747,,,
74705193000,0.999878,-0.008606,0.013611,0.0,-0.027344,-0.003906,0.027344,2.652694,,,
74725609000,0.999878,-0.008606,0.013611,0.0,0.011719,0.035156,0.027344,2.67311,,,
74745744000,0.999878,-0.008606,0.013611,0.0,0.011719,0.035156,-0.011719,2.693245,,,
74765975000,0.999878,-0.008606,0.013611,0.0,0.011719,-0.003906,-0.011719,2.713476,,,
74795394000,0.999878,-0.008606,0.013611,0.0,0.011719,-0.003906,-0.019531,2.742895,,,
74816654000,0.999878,-0.008606,0.013611,0.0,0.011719,-0.003906,0.019531,2.764155,,,
74825281000,0.999878,-0.008606,0.013611,0.0,0.011719,0.035156,0.019531,2.772782,,,
74845583000,0.999878,-0.008606,0.013611,0.0,0.011719,0.035156,0.019531,2.793084,,,
74865116000,0.999878,-0.008606,0.013611,0.0,-0.027344,-0.003906,0.019531,2.812617,,,
74885633000,0.999878,-0.008606,0.013611,0.0,0.011719,-0.003906,-0.019531,2.833134,,,
74914712000,0.999878,-0.008606,0.013611,0.0,-0.027344,-0.003906,-0.019531,2.862213,,,
74930558000,0.999878,-0.008606,0.013611,0.0,-0.027344,0.035156,-0.019531,2.878059,,,
74945112000,0.999878,-0.008606,0.013611,0.0,0.011719,0.035156,0.019531,2.892613,,,
74965064000,0.999878,-0.008606,0.013611,0.0,0.011719,-0.011719,0.019531,2.912565,,,
74985314000,0.999878,-0.008606,0.013611,0.0,0.011719,-0.011719,0.019531,2.932815,,,
75014376000,0.999878,-0.008606,0.013611,0.0,-0.027344,-0.003906,-0.019531,2.961877,,,
75029133000,0.999878,-0.008606,0.013611,0.0,0.011719,-0.003906,-0.019531,2.976634,,,
75044759000,0.999878,-0.008606,0.013611,0.0,0.011719,-0.003906,-0.019531,2.99226,,,
75065152000,0.999878,-0.008606,0.013611,0.0,-0.027344,-0.003906,-0.019531,3.012653,,,
75085012000,0.999878,-0.008606,0.013611,0.0,-0.027344,-0.003906,0.019531,3.032513,,,
75106017000,0.999878,-0.008606,0.013611,0.0,0.011719,-0.003906,-0.019531,3.053518,,,
75129956000,0.999878,-0.008606,0.013611,0.0,-0.027344,0.035156,-0.019531,3.077457,,,
75144656000,0.999878,-0.008606,0.013611,0.0,0.011719,-0.003906,0.019531,3.092157,,,
75164891000,0.999878,-0.008606,0.013611,0.0,0.011719,-0.003906,-0.019531,3.112392,,,
75184999000,0.999878,-0.008606,0.013611,0.0,-0.027344,-0.003906,0.019531,3.1325,,,
75213845000,0.999878,-0.008606,0.013611,0.0,-0.027344,-0.003906,-0.019531,3.161346,,,
75224318000,0.999878,-0.008606,0.013611,0.0,0.011719,0.035156,0.019531,3.171819,,,
75244782000,0.999878,-0.008606,0.013611,0.0,0.011719,-0.003906,0.019531,3.192283,,,
75264932000,0.999878,-0.008606,0.013611,0.0,-0.027344,0.035156,-0.019531,3.212433,,,
75293936000,0.999878,-0.008606,0.013611,0.0,-0.027344,-0.003906,-0.019531,3.241437,,,
75313636000,0.999878,-0.008606,0.013611,0.0,0.011719,-0.003906,0.019531,3.261137,,,
75323911000,0.999878,-0.008606,0.013611,0.0,-0.027344,-0.003906,-0.019531,3.271412,,,
75344351000,0.999878,-0.008606,0.013611,0.0,0.011719,-0.003906,-0.019531,3.291852,,,
75365085000,0.999878,-0.008606,0.013611,0.0,0.011719,-0.003906,0.019531,3.312586,,,
75388800000,0.999878,-0.008606,0.013611,0.0,0.011719,-0.003906,0.019531,3.336301,,,
75407113000,0.999878,-0.008606,0.013611,0.0,0.011719,-0.003906,-0.019531,3.354614,,,
75424351000,0.999878,-0.008606,0.013611,0.0,0.011719,-0.003906,-0.019531,3.371852,,,
75444895000,0.999878,-0.008606,0.013611,0.0,-0.027344,0.035156,-0.019531,3.392396,,,
75472963000,0.999878,-0.008606,0.013611,0.0,-0.027344,-0.003906,-0.011719,3.420464,,,
75483639000,0.999878,-0.008606,0.013611,0.0,0.011719,-0.003906,-0.011719,3.43114,,,
75504746000,0.999878,-0.008606,0.013611,0.0,-0.027344,-0.003906,-0.011719,3.452247,,,
75524435000,0.999878,-0.008667,0.013611,-6.1e-05,0.050781,0.070312,0.21875,3.471936,,,
75544524000,0.999878,-0.008667,0.013672,-6.1e-05,-0.027344,0.035156,-0.050781,3.492025,,,
75572808000,0.999878,-0.008667,0.013672,-6.1e-05,-0.027344,-0.003906,-0.011719,3.520309,,,
75583182000,0.999878,-0.008667,0.013672,-6.1e-05,-0.027344,-0.003906,0.027344,3.530683,,,
75604421000,0.999878,-0.008728,0.013672,-6.1e-05,0.011719,0.035156,0.027344,3.551922,,,
75624435000,0.999878,-0.008728,0.013733,-6.1e-05,0.011719,-0.003906,0.027344,3.571936,,,
75653148000,0.999878,-0.008728,0.013733,-6.1e-05,0.011719,-0.003906,0.027344,3.600649,,,
75668013000,0.999878,-0.008728,0.013672,-6.1e-05,0.011719,-0.003906,0.027344,3.615514,,,
75684372000,0.999878,-0.008728,0.013733,-0.000122,0.011719,-0.003906,-0.011719,3.631873,,,
75704366000,0.999878,-0.008789,0.013733,-6.1e-05,-0.027344,0.035156,0.027344,3.651867,,,
75732845000,0.999878,-0.008789,0.013733,-0.000122,0.011719,-0.003906,0.019531,3.680346,,,
75743811000,0.999878,-0.008789,0.013733,-0.000122,0.011719,-0.003906,-0.019531,3.691312,,,
75769331000,0.999878,-0.008789,0.013733,-0.000122,0.011719,-0.003906,-0.019531,3.716832,,,
75784070000,0.999878,-0.008728,0.013733,-0.000122,-0.027344,0.035156,0.019531,3.731571,,,
75812365000,0.999878,-0.008789,0.013733,-0.000122,-0.027344,-0.003906,0.019531,3.759866,,,
75823308000,0.999878,-0.008789,0.013733,-0.000122,0.011719,-0.003906,0.019531,3.770809,,,
75852375000,0.999878,-0.008728,0.013794,-0.000122,0.011719,-0.003906,-0.019531,3.799876,,,
75872342000,0.999878,-0.008728,0.013794,-0.000122,-0.027344,-0.003906,-0.019531,3.819843,,,
75892875000,0.999878,-0.008789,0.013855,-0.000122,0.011719,-0.003906,0.019531,3.840376,,,
75913695000,0.999878,-0.008728,0.013855,-0.000122,-0.027344,-0.003906,-0.019531,3.861196,,,
75923490000,0.999878,-0.008789,0.013855,-0.000122,0.011719,-0.003906,-0.019531,3.870991,,,
75952129000,0.999878,-0.00885,0.014099,-0.000122,0.019531,-0.003906,0.132812,3.89963,,5.05,6.04
75971854000,0.999878,-0.008423,0.014282,-0.000122,-0.085938,-0.15625,0.308594,3.919355,,,
75991664000,0.999878,-0.008301,0.014099,-0.000122,0.066406,0.0625,-0.304688,3.939165,,,
76003337000,0.999878,-0.008362,0.014038,-0.000122,-0.046875,0.0625,-0.417969,3.950838,,,
76031679000,0.999878,-0.008362,0.013977,-0.000122,0.019531,0.003906,-0.035156,3.97918,,,
76051680000,0.999878,-0.008362,0.013916,-0.000122,-0.019531,0.003906,-0.035156,3.999181,,,
76071906000,0.999878,-0.008423,0.013916,-0.000122,-0.019531,0.003906,0.003906,4.019407,,,
76091541000,0.999878,-0.008423,0.013855,-0.000122,-0.019531,0.003906,-0.042969,4.039042,,,
76112670000,0.999878,-0.008484,0.013855,-0.000122,-0.019531,0.003906,-0.042969,4.060171,,,
76135713000,0.999878,-0.008545,0.013794,-0.000122,-0.019531,0.003906,-0.042969,4.083214,,,
76151629000,0.999878,-0.008606,0.013733,-0.000122,-0.019531,0.042969,-0.042969,4.09913,,,
76171855000,0.999878,-0.008667,0.013672,-0.000122,-0.019531,0.003906,-0.042969,4.119356,,,
76191815000,0.999878,-0.008667,0.013672,-0.000122,-0.019531,0.003906,-0.003906,4.139316,,,
76215586000,0.999878,-0.008667,0.013672,-0.000122,-0.019531,0.003906,-0.003906,4.163087,,,
76231395000,0.999878,-0.008667,0.013672,-0.000122,0.019531,0.003906,-0.003906,4.178896,,,
76251272000,0.999878,-0.008667,0.013672,-0.000122,-0.019531,0.003906,-0.042969,4.198773,,,
76271364000,0.999878,-0.008667,0.013672,-0.000122,-0.019531,0.003906,-0.050781,4.218865,,,
76294738000,0.999878,-0.008667,0.013672,-0.000183,0.019531,0.003906,-0.050781,4.242239,,,
76311713000,0.999878,-0.008606,0.013672,-0.000122,-0.019531,0.042969,-0.011719,4.259214,,,
76331425000,0.999878,-0.008606,0.013672,-0.000122,-0.011719,-0.011719,0.042969,4.278926,,,
76351637000,0.999878,-0.008606,0.013672,-0.000122,-0.011719,-0.011719,0.042969,4.299138,,,
76373992000,0.999878,-0.008606,0.013672,-0.000122,0.027344,0.027344,0.003906,4.321493,,,
76391279000,0.999878,-0.008606,0.013672,-0.000183,-0.011719,-0.011719,0.042969,4.33878,,,
76410995000,0.999878,-0.008606,0.013672,-0.000183,-0.011719,0.027344,0.003906,4.358496,,,
76430654000,0.999878,-0.008606,0.013672,-0.000183,-0.011719,-0.011719,0.003906,4.378155,,,
76455279000,0.999878,-0.008667,0.013611,-0.000183,0.019531,0.027344,-0.003906,4.40278,,,
76470538000,0.999878,-0.008667,0.01355,-0.000183,-0.019531,-0.011719,-0.003906,4.418039,,,
76491150000,0.999878,-0.008667,0.01355,-0.000183,-0.019531,-0.011719,-0.003906,4.438651,,,
76510570000,0.999878,-0.008728,0.013428,-0.000183,0.019531,-0.011719,-0.003906,4.458071,,,
76531987000,0.999878,-0.008728,0.013428,-0.000183,-0.019531,-0.011719,-0.003906,4.479488,,,
76555251000,0.999878,-0.008789,0.013367,-0.000183,0.019531,-0.011719,0.035156,4.502752,,,
76570743000,0.999878,-0.008789,0.013306,-0.000122,0.019531,-0.011719,0.070312,4.518244,,,
76590789000,0.999878,-0.00885,0.013245,-0.000122,-0.019531,-0.003906,-0.003906,4.53829,,,
76610760000,0.999878,-0.00885,0.013245,-0.000122,-0.027344,-0.003906,0.035156,4.558261,,,
76630472000,0.999878,-0.00885,0.013184,-0.000122,0.011719,-0.003906,0.035156,4.577973,,,
76650632000,0.999878,-0.008789,0.013184,-0.000122,-0.027344,-0.003906,0.035156,4.598133,,,
76670064000,0.999878,-0.008789,0.013184,-0.000122,-0.027344,-0.003906,-0.011719,4.617565,,,
76690369000,0.999878,-0.008789,0.013184,-0.000183,0.011719,-0.003906,-0.011719,4.63787,,,
76710265000,0.999878,-0.008789,0.013245,-0.000183,0.011719,-0.003906,0.027344,4.657766,,,
76734797000,0.999878,-0.008789,0.013245,-0.000183,0.011719,0.035156,0.027344,4.682298,,,
76750588000,0.999878,-0.008789,0.013245,-0.000183,0.011719,-0.003906,-0.011719,4.698089,,,
76770075000,0.999878,-0.008789,0.013245,-0.000183,0.011719,-0.003906,0.027344,4.717576,,,
76789997000,0.999878,-0.008789,0.013184,-0.000183,0.050781,-0.003906,-0.011719,4.737498,,,
76815093000,0.999878,-0.00885,0.013184,-0.000183,0.003906,-0.003906,-0.011719,4.762594,,,
76829925000,0.999878,-0.00885,0.013184,-0.000183,0.003906,-0.003906,0.027344,4.777426,,,
76849407000,0.999878,-0.00885,0.013184,-0.000183,0.003906,-0.003906,0.027344,4.796908,,,
76873300000,0.999878,-0.00885,0.013184,-0.000183,0.003906,-0.003906,-0.011719,4.820801,,,
76889848000,0.999878,-0.00885,0.013245,-0.000183,-0.035156,-0.003906,-0.011719,4.837349,,,
76910032000,0.999878,-0.00885,0.013245,-0.000183,-0.035156,-0.042969,0.027344,4.857533,,,
76929944000,0.999878,-0.008789,0.013245,-0.000183,-0.035156,-0.003906,0.027344,4.877445,,,
76950319000,0.999878,-0.008789,0.013245,-0.000183,0.003906,0.035156,0.027344,4.89782,,,
76972682000,0.999878,-0.008789,0.013245,-0.000183,0.003906,-0.003906,0.027344,4.920183,,,
76994446000,0.999878,-0.008789,0.013245,-0.000183,0.003906,-0.003906,0.027344,4.941947,,,
77009555000,0.999878,-0.008728,0.013245,-0.000183,0.003906,-0.003906,-0.011719,4.957056,,,
77029011000,0.999878,-0.008728,0.013245,-0.000183,-0.035156,0.003906,-0.011719,4.976512,,,
77054158000,0.999878,-0.008728,0.013306,-0.000183,0.003906,-0.003906,-0.011719,5.001659,,,
77068909000,0.999878,-0.008728,0.013306,-0.000183,0.011719,-0.003906,-0.011719,5.01641,,,
77089053000,0.999878,-0.008667,0.013306,-0.000183,0.011719,-0.003906,0.027344,5.036554,,,
77109312000,0.999878,-0.008667,0.013367,-0.000183,0.011719,-0.003906,-0.011719,5.056813,,,
77129503000,0.999878,-0.008667,0.013367,-0.000183,-0.027344,-0.003906,0.027344,5.077004,,,
77152170000,0.999878,-0.008667,0.013428,-0.000183,0.011719,0.035156,0.027344,5.099671,,,
77168929000,0.999878,-0.008667,0.013428,-0.000183,0.011719,-0.003906,0.027344,5.11643,,,
77188570000,0.999878,-0.008667,0.013428,-0.000183,-0.027344,-0.003906,0.027344,5.136071,,,
77211575000,0.999878,-0.008667,0.013428,-0.000183,0.011719,-0.003906,0.027344,5.159076,,,
77228379000,0.999878,-0.008667,0.013428,-0.000122,0.011719,-0.003906,0.027344,5.17588,,,
77250283000,0.999878,-0.008728,0.013428,-0.000122,0.011719,-0.003906,0.027344,5.197784,,,
77268440000,0.999878,-0.008728,0.013428,-0.000122,0.011719,-0.003906,0.027344,5.215941,,,
77289259000,0.999878,-0.008728,0.013428,-0.000122,0.011719,0.035156,0.027344,5.23676,,,
77312248000,0.999878,-0.008728,0.013428,-0.000122,-0.027344,-0.003906,0.027344,5.259749,,,
77333082000,0.999878,-0.008728,0.013428,-0.000122,0.011719,-0.003906,0.027344,5.280583,,,
77348084000,0.999878,-0.008728,0.013489,-0.000122,0.011719,-0.003906,0.027344,5.295585,,,
77368116000,0.999878,-0.008667,0.013489,-0.000122,-0.027344,-0.003906,0.027344,5.315617,,,
77388028000,0.999878,-0.008667,0.013489,-6.1e-05,-0.027344,-0.003906,-0.011719,5.335529,,,
77407905000,0.999878,-0.008667,0.013489,-6.1e-05,0.011719,-0.003906,0.027344,5.355406,,,
77438907000,0.999878,-0.008728,0.013489,-6.1e-05,0.011719,-0.003906,-0.011719,5.386408,,,
77454197000,0.999878,-0.008728,0.013489,-6.1e-05,0.011719,0.035156,0.027344,5.401698,,,
77468143000,0.999878,-0.008728,0.013489,-6.1e-05,0.011719,-0.003906,-0.011719,5.415644,,,
77488000000,0.999878,-0.008728,0.013489,-6.1e-05,0.011719,-0.003906,-0.011719,5.435501,,,
77509141000,0.999878,-0.008728,0.013489,-6.1e-05,0.011719,-0.003906,-0.011719,5.456642,,,
77537747000,0.999878,-0.008728,0.013489,-6.1e-05,0.011719,0.035156,-0.011719,5.485248,,,
77551973000,0.999878,-0.008728,0.013489,-6.1e-05,-0.027344,-0.003906,0.027344,5.499474,,,
77567758000,0.999878,-0.008728,0.013489,-6.1e-05,0.011719,-0.003906,-0.011719,5.515259,,,
77588251000,0.999878,-0.008728,0.013489,-6.1e-05,0.011719,-0.003906,0.027344,5.535752,,,
77607606000,0.999878,-0.008728,0.013489,-6.1e-05,0.011719,-0.003906,0.027344,5.555107,,,
77637610000,0.999878,-0.008667,0.013489,-0.000122,-0.035156,-0.003906,-0.011719,5.585111,,,
77647656000,0.999878,-0.008667,0.013489,-0.000122,0.003906,0.035156,-0.011719,5.595157,,,
77667449000,0.999878,-0.008667,0.013489,-0.000122,-0.027344,-0.003906,-0.011719,5.61495,,,
77688188000,0.999878,-0.008667,0.013489,-0.000122,0.011719,-0.003906,0.027344,5.635689,,,
77717368000,0.999878,-0.008606,0.01355,-0.000122,0.011719,-0.003906,-0.011719,5.664869,,,
77727822000,0.999878,-0.008667,0.013489,-0.000122,0.011719,-0.003906,-0.011719,5.675323,,,
77747736000,0.999878,-0.008667,0.01355,-0.000122,0.011719,-0.003906,-0.011719,5.695237,,,
77767456000,0.999878,-0.008606,0.01355,-0.000122,0.011719,-0.003906,-0.011719,5.714957,,,
77791665000,0.999878,-0.008667,0.01355,-0.000122,-0.027344,-0.003906,0.027344,5.739166,,,
77807928000,0.999878,-0.008606,0.01355,-0.000122,0.011719,0.035156,-0.011719,5.755429,,,
77826979000,0.999878,-0.008606,0.01355,-0.000122,0.011719,-0.003906,-0.011719,5.77448,,,
77847290000,0.999878,-0.008667,0.01355,-0.000122,0.011719,-0.003906,0.035156,5.794791,,,
77877091000,0.999878,-0.008667,0.01355,-0.000122,-0.027344,-0.003906,0.035156,5.824592,2.71,4.95,6.03
77886804000,0.999878,-0.008606,0.01355,-0.000122,0.011719,-0.003906,0.035156,5.834305,,,
77907504000,0.999878,-0.008667,0.01355,-0.000122,0.011719,-0.003906,-0.003906,5.855005,,,
77936950000,0.999878,-0.008667,0.01355,-0.000122,-0.027344,-0.003906,0.035156,5.884451,,,
77953056000,0.999878,-0.008667,0.01355,-0.000122,0.011719,-0.003906,0.035156,5.900557,,,
77968001000,0.999878,-0.008728,0.01355,-0.000122,-0.027344,-0.003906,-0.003906,5.915502,,,
77986491000,0.999878,-0.008667,0.01355,-0.000122,-0.027344,-0.003906,0.027344,5.933992,,,
78007081000,0.999878,-0.008667,0.013489,-0.000122,-0.027344,0.035156,0.027344,5.954582,,,
78036607000,0.999878,-0.008667,0.013489,-0.000122,-0.027344,-0.003906,-0.011719,5.984108,,,
78046133000,0.999878,-0.008667,0.013489,-0.000122,0.011719,-0.003906,-0.011719,5.993634,,,
78070236000,0.999878,-0.008667,0.013489,-0.000183,0.011719,-0.003906,0.027344,6.017737,2.7,4.95,6.05
78086560000,0.999878,-0.008667,0.013489,-0.000183,0.011719,-0.003906,-0.011719,6.034061,,,
78116115000,0.999878,-0.008667,0.013489,-0.000183,-0.027344,-0.003906,0.027344,6.063616,,,
78125972000,0.999878,-0.008667,0.013489,-0.000183,-0.027344,-0.003906,0.027344,6.073473,,,
78146438000,0.999878,-0.008667,0.013489,-0.000183,0.011719,0.035156,-0.011719,6.093939,,,
78166378000,0.999878,-0.008667,0.013489,-0.000183,0.011719,0.035156,0.027344,6.113879,,,
78196058000,0.999878,-0.008667,0.013489,-0.000183,0.011719,-0.003906,-0.011719,6.143559,,,
78212869000,0.999878,-0.008667,0.013489,-0.000183,0.011719,-0.003906,-0.011719,6.16037,,,
78226286000,0.999878,-0.008667,0.013489,-0.000183,-0.027344,-0.003906,-0.011719,6.173787,,,
78246158000,0.999878,-0.008667,0.013489,-0.000183,-0.027344,-0.003906,0.0625,6.193659,,,
78275280000,0.999878,-0.008667,0.013489,-0.000183,-0.027344,-0.003906,-0.011719,6.222781,2.67,4.95,6.05
78292912000,0.999878,-0.008606,0.013428,-0.000183,0.011719,-0.003906,-0.011719,6.240413,,,
78305550000,0.999878,-0.008606,0.013489,-0.000183,-0.027344,-0.003906,-0.011719,6.253051,,,
78326526000,0.999878,-0.008606,0.013489,-0.000183,-0.027344,-0.003906,-0.011719,6.274027,,,
78346496000,0.999878,-0.008545,0.013489,-0.000183,0.011719,-0.003906,0.027344,6.293997,,,
78379050000,0.999878,-0.008545,0.013428,-0.000183,0.011719,-0.003906,-0.011719,6.326551,,,
78385298000,0.999878,-0.008606,0.013428,-0.000183,0.011719,-0.003906,0.027344,6.332799,,,
78405893000,0.999878,-0.008606,0.013428,-0.000183,-0.027344,-0.003906,-0.011719,6.353394,,,
78427149000,0.999878,-0.008606,0.013428,-0.000183,-0.027344,0.003906,-0.011719,6.37465,,,
78449747000,0.999878,-0.008606,0.013428,-0.000183,-0.027344,0.003906,-0.011719,6.397248,,,
78465644000,0.999878,-0.008606,0.013428,-0.000183,0.050781,0.003906,-0.011719,6.413145,2.71,4.94,6.05
78485686000,0.999878,-0.008606,0.013428,-0.000183,-0.027344,0.003906,-0.011719,6.433187,,,
78516195000,0.999878,-0.008606,0.013428,-0.000183,-0.027344,0.003906,-0.003906,6.463696,,,
78530401000,0.999878,-0.008606,0.013428,-0.000183,0.011719,0.003906,-0.003906,6.477902,,,
78545571000,0.999878,-0.008606,0.013428,-0.000183,-0.027344,0.003906,-0.003906,6.493072,,,
78565531000,0.999878,-0.008667,0.013428,-0.000183,-0.027344,0.003906,-0.003906,6.513032,,,
78595592000,0.999878,-0.008606,0.013428,-0.000183,0.011719,0.003906,0.035156,6.543093,,,
78604416000,0.999878,-0.008667,0.013428,-0.000183,-0.027344,0.003906,0.035156,6.551917,,,
78625566000,0.999878,-0.008667,0.013428,-0.000183,0.011719,0.003906,-0.003906,6.573067,,,
78645447000,0.999878,-0.008667,0.013428,-0.000183,-0.027344,0.042969,-0.003906,6.592948,,,
78674911000,0.999878,-0.008667,0.013428,-0.000183,0.011719,0.003906,-0.003906,6.622412,2.68,4.96,6.02
78694887000,0.999878,-0.008667,0.013428,-0.000183,-0.027344,0.003906,-0.003906,6.642388,,,
78704885000,0.999878,-0.008667,0.013367,-0.000183,-0.027344,-0.003906,-0.003906,6.652386,,,
78725205000,0.999878,-0.008606,0.013367,-0.000183,0.011719,0.035156,0.035156,6.672706,,,
78751086000,0.999878,-0.008606,0.013367,-0.000183,0.011719,-0.003906,-0.003906,6.698587,,,
78764992000,0.999878,-0.008606,0.013367,-0.000183,-0.027344,-0.003906,-0.003906,6.712493,,,
78794457000,0.999878,-0.008606,0.013367,-0.000183,-0.027344,-0.003906,-0.003906,6.741958,,,
78814549000,0.999878,-0.008667,0.013367,-0.000183,0.011719,-0.003906,0.035156,6.76205,,,
78830907000,0.999878,-0.008606,0.013367,-0.000183,-0.027344,-0.003906,0.035156,6.778408,,,
78844762000,0.999878,-0.008606,0.013367,-0.000183,0.011719,-0.003906,0.027344,6.792263,,,
78865214000,0.999878,-0.008667,0.013367,-0.000183,0.011719,-0.003906,0.027344,6.812715,2.67,5.04,6.03
78887877000,0.999878,-0.008606,0.013367,-0.000244,0.011719,0.035156,0.027344,6.835378,,,
78917513000,0.999878,-0.008667,0.013428,-0.000183,0.011719,-0.003906,-0.011719,6.865014,,,
78924479000,0.999878,-0.008667,0.013428,-0.000183,-0.027344,-0.003906,0.027344,6.87198,,,
78946145000,0.999878,-0.008667,0.013428,-0.000183,-0.027344,-0.003906,-0.011719,6.893646,,,
78970896000,0.999878,-0.008667,0.013367,-0.000183,0.011719,-0.003906,0.027344,6.918397,,,
78998473000,0.999878,-0.008667,0.013367,-0.000183,-0.027344,-0.003906,-0.011719,6.945974,,,
79004894000,0.999878,-0.008667,0.013367,-0.000183,-0.027344,-0.003906,0.027344,6.952395,,,
79033574000,0.999878,-0.008667,0.013367,-0.000183,-0.027344,-0.003906,-0.011719,6.981075,,,
79043807000,0.999878,-0.008667,0.013367,-0.000183,-0.027344,-0.003906,-0.011719,6.991308,,,
79064592000,0.999878,-0.008667,0.013367,-0.000183,-0.027344,-0.003906,-0.011719,7.012093,2.69,4.97,6.05
79084614000,0.999878,-0.008667,0.013367,-0.000183,0.019531,0.035156,-0.011719,7.032115,,,
79113882000,0.999878,-0.008606,0.013367,-0.000183,-0.019531,-0.003906,-0.011719,7.061383,,,
79129620000,0.999878,-0.008606,0.013367,-0.000183,-0.019531,-0.003906,-0.011719,7.077121,,,
79144544000,0.999878,-0.008606,0.013367,-0.000183,-0.019531,-0.003906,0.027344,7.092045,,,
79173215000,0.999878,-0.008606,0.013367,-0.000183,-0.019531,-0.003906,-0.011719,7.120716,,,
79183532000,0.999878,-0.008606,0.013306,-0.000183,0.019531,-0.003906,0.027344,7.131033,,,
79213489000,0.999878,-0.008606,0.013306,-0.000183,-0.019531,-0.003906,0.027344,7.16099,,,
79233902000,0.999878,-0.008606,0.013306,-0.000244,0.019531,-0.003906,-0.011719,7.181403,,,
79252968000,0.999878,-0.008606,0.013367,-0.000244,-0.019531,-0.003906,-0.011719,7.200469,,,
79263287000,0.999878,-0.008606,0.013367,-0.000244,-0.019531,-0.003906,-0.011719,7.210788,2.7,4.97,6.05
79284597000,0.999878,-0.008545,0.013367,-0.000244,0.019531,-0.003906,0.027344,7.232098,,,
79313141000,0.999878,-0.008545,0.013367,-0.000183,0.019531,-0.003906,-0.011719,7.260642,,,
79329524000,0.999878,-0.008545,0.013367,-0.000183,0.019531,-0.003906,-0.011719,7.277025,,,
79344419000,0.999878,-0.008545,0.013367,-0.000183,-0.019531,-0.003906,-0.011719,7.29192,,,
79364638000,0.999878,-0.008606,0.013367,-0.000183,-0.019531,-0.003906,-0.011719,7.312139,,,
79385045000,0.999878,-0.008545,0.013367,-0.000183,-0.019531,0.003906,0.027344,7.332546,,,
79413711000,0.999878,-0.008545,0.013367,-0.000183,0.019531,-0.003906,-0.011719,7.361212,,,
79433041000,0.999878,-0.008484,0.013367,-0.000244,-0.019531,-0.003906,-0.011719,7.380542,,,
79443189000,0.999878,-0.008545,0.013367,-0.000244,-0.019531,-0.003906,0.027344,7.39069,,,
79479268000,0.999878,-0.008545,0.013367,-0.000244,-0.019531,-0.035156,0.027344,7.426769,2.7,4.95,6.03
79493098000,0.999878,-0.008484,0.013367,-0.000244,-0.054688,-0.035156,-0.011719,7.440599,,,
79514591000,0.999878,-0.008545,0.013367,-0.000244,-0.019531,0.003906,-0.050781,7.462092,,,
79523339000,0.999878,-0.008545,0.013367,-0.000244,0.019531,0.042969,0.027344,7.47084,,,
79552122000,0.999878,-0.008545,0.013367,-0.000244,-0.019531,-0.003906,-0.011719,7.499623,,,
79572784000,0.999878,-0.008545,0.013367,-0.000244,0.019531,-0.003906,-0.011719,7.520285,,,
79595846000,0.999878,-0.008545,0.013367,-0.000244,0.019531,-0.003906,0.027344,7.543347,,,
79612634000,0.999878,-0.008545,0.013367,-0.000244,-0.019531,-0.003906,0.027344,7.560135,,,
79631943000,0.999878,-0.008545,0.013367,-0.000244,-0.019531,0.035156,-0.011719,7.579444,,,
79651917000,0.999878,-0.008545,0.013367,-0.000244,-0.019531,-0.003906,0.027344,7.599418,,,
79675969000,0.999878,-0.008545,0.013367,-0.000244,0.019531,-0.003906,-0.011719,7.62347,2.7,4.97,6.04
79692340000,0.999878,-0.008545,0.013367,-0.000244,-0.019531,-0.003906,-0.011719,7.639841,,,
79712064000,0.999878,-0.008545,0.013367,-0.000244,-0.019531,-0.003906,0.027344,7.659565,,,
79731764000,0.999878,-0.008545,0.013367,-0.000244,0.019531,0.035156,-0.011719,7.679265,,,
79752102000,0.999878,-0.008545,0.013367,-0.000244,0.019531,0.035156,0.027344,7.699603,,,
79776832000,0.999878,-0.008545,0.013367,-0.000244,-0.019531,-0.003906,-0.011719,7.724333,,,
79792042000,0.999878,-0.008545,0.013367,-0.000244,0.019531,-0.003906,-0.011719,7.739543,,,
79811581000,0.999878,-0.008545,0.013367,-0.000244,0.011719,-0.003906,0.027344,7.759082,,,
79831917000,0.999878,-0.008545,0.013367,-0.000244,-0.027344,-0.003906,-0.011719,7.779418,,,
79856384000,0.999878,-0.008545,0.013367,-0.000244,0.011719,-0.003906,-0.011719,7.803885,2.69,4.94,6.03
79871514000,0.999878,-0.008545,0.013367,-0.000244,-0.027344,0.035156,-0.011719,7.819015,,,
79891733000,0.999878,-0.008545,0.013367,-0.000244,0.011719,-0.003906,-0.011719,7.839234,,,
79912994000,0.999878,-0.008545,0.013367,-0.000244,-0.019531,0.035156,-0.011719,7.860495,,,
79931470000,0.999878,-0.008545,0.013367,-0.000244,0.019531,-0.003906,-0.011719,7.878971,,,
79951265000,0.999878,-0.008545,0.013367,-0.000244,-0.027344,-0.003906,-0.011719,7.898766,,,
79976700000,0.999878,-0.008545,0.013367,-0.000244,0.011719,-0.003906,-0.011719,7.924201,,,
79990990000,0.999878,-0.008545,0.013367,-0.000244,-0.027344,-0.003906,0.027344,7.938491,,,
80011569000,0.999878,-0.008545,0.013367,-0.000244,0.011719,-0.003906,-0.011719,7.95907,,,
80034789000,0.999878,-0.008545,0.013367,-0.000244,-0.019531,-0.003906,-0.011719,7.98229,,,
80052338000,0.999878,-0.008545,0.013367,-0.000244,0.019531,0.035156,-0.011719,7.999839,,,
80071290000,0.999878,-0.008545,0.013367,-0.000244,0.019531,-0.003906,-0.011719,8.018791,2.7,4.98,6.04
80091558000,0.999878,-0.008545,0.013367,-0.000244,0.011719,-0.003906,0.027344,8.039059,,,
80114008000,0.999878,-0.008545,0.013367,-0.000244,-0.027344,-0.003906,-0.011719,8.061509,,,
80131163000,0.999878,-0.008545,0.013367,-0.000244,0.011719,-0.003906,0.027344,8.078664,,,
80150707000,0.999878,-0.008545,0.013367,-0.000244,0.011719,0.035156,-0.011719,8.098208,,,
80171035000,0.999878,-0.008545,0.013367,-0.000244,0.011719,0.035156,0.027344,8.118536,,,
80195461000,0.999878,-0.008545,0.013367,-0.000244,-0.027344,-0.003906,-0.011719,8.142962,,,
80210948000,0.999878,-0.008545,0.013367,-0.000244,0.011719,-0.003906,0.027344,8.158449,,,
80230722000,0.999878,-0.008545,0.013367,-0.000244,0.011719,-0.003906,-0.011719,8.178223,,,
80250892000,0.999878,-0.008545,0.013367,-0.000244,0.011719,0.035156,-0.011719,8.198393,,,
80272594000,0.999878,-0.008545,0.013367,-0.000244,-0.027344,-0.003906,-0.011719,8.220095,2.68,4.96,6.04
80290011000,0.999878,-0.008545,0.013367,-0.000244,-0.027344,-0.003906,-0.011719,8.237512,,,
80311001000,0.999878,-0.008545,0.013367,-0.000244,-0.027344,-0.003906,-0.011719,8.258502,,,
80331136000,0.999878,-0.008545,0.013367,-0.000244,-0.027344,-0.003906,-0.011719,8.278637,,,
80350466000,0.999878,-0.008545,0.013367,-0.000244,-0.027344,-0.003906,0.027344,8.297967,,,
80369988000,0.999878,-0.008545,0.013367,-0.000244,0.011719,0.035156,-0.011719,8.317489,,,
80390871000,0.999878,-0.008545,0.013367,-0.000244,0.011719,-0.003906,-0.011719,8.338372,,,
80412903000,0.999878,-0.008545,0.013367,-0.000244,0.011719,-0.003906,0.027344,8.360404,,,
80430220000,0.999878,-0.008545,0.013367,-0.000244,0.011719,-0.003906,0.027344,8.377721,,,
80449787000,0.999878,-0.008545,0.013367,-0.000244,0.011719,0.035156,0.027344,8.397288,,,
80470394000,0.999878,-0.008545,0.013367,-0.000244,0.011719,-0.003906,0.027344,8.417895,2.67,4.99,6.06
80489886000,0.999878,-0.008545,0.013367,-0.000244,-0.027344,-0.003906,-0.011719,8.437387,,,
80514633000,0.999878,-0.008545,0.013367,-0.000244,0.011719,-0.003906,-0.011719,8.462134,,,
80529663000,0.999878,-0.008545,0.013367,-0.000244,-0.027344,-0.003906,-0.011719,8.477164,,,
80550304000,0.999878,-0.008545,0.013367,-0.000244,0.011719,-0.003906,-0.011719,8.497805,,,
80569521000,0.999878,-0.008545,0.013367,-0.000244,0.011719,0.035156,0.027344,8.517022,,,
80592790000,0.999878,-0.008545,0.013367,-0.000244,-0.027344,-0.003906,-0.011719,8.540291,,,
80609176000,0.999878,-0.008545,0.013367,-0.000244,0.011719,0.035156,-0.011719,8.556677,,,
80629546000,0.999878,-0.008545,0.013367,-0.000244,-0.027344,0.035156,0.027344,8.577047,,,
80649478000,0.999878,-0.008545,0.013367,-0.000244,-0.027344,-0.003906,-0.011719,8.596979,,,
80669378000,0.999878,-0.008545,0.013367,-0.000244,-0.027344,0.035156,-0.011719,8.616879,2.64,4.96,6.02
80692371000,0.999878,-0.008545,0.013367,-0.000244,-0.027344,-0.003906,0.027344,8.639872,,,
80708935000,0.999878,-0.008545,0.013367,-0.000244,0.011719,-0.003906,0.027344,8.656436,,,
80732135000,0.999878,-0.008545,0.013367,-0.000244,0.011719,-0.003906,0.019531,8.679636,,,
80749273000,0.999878,-0.008545,0.013367,-0.000244,-0.027344,0.035156,-0.019531,8.696774,,,
80778557000,0.999878,-0.008545,0.013367,-0.000244,0.011719,-0.003906,-0.019531,8.726058,,,
80789099000,0.999878,-0.008545,0.013367,-0.000244,0.011719,-0.003906,-0.019531,8.7366,,,
80809392000,0.999878,-0.008545,0.013367,-0.000244,-0.019531,-0.003906,-0.019531,8.756893,,,
80838848000,0.999878,-0.008545,0.013367,-0.000244,0.019531,-0.003906,0.019531,8.786349,,,
80848995000,0.999878,-0.008545,0.013367,-0.000244,0.019531,-0.003906,-0.019531,8.796496,,,
80868460000,0.999878,-0.008545,0.013367,-0.000244,-0.019531,-0.003906,-0.019531,8.815961,2.68,4.94,6.02
80888412000,0.999878,-0.008545,0.013367,-0.000244,-0.019531,-0.003906,0.019531,8.835913,,,
80920088000,0.999878,-0.008545,0.013367,-0.000244,-0.019531,0.035156,0.019531,8.867589,,,
80933133000,0.999878,-0.008545,0.013367,-0.000244,-0.019531,-0.003906,-0.019531,8.880634,,,
80948118000,0.999878,-0.008545,0.013367,-0.000244,-0.019531,-0.003906,0.019531,8.895619,,,
80968196000,0.999878,-0.008545,0.013367,-0.000244,0.019531,-0.003906,0.019531,8.915697,,,
80991511000,0.999878,-0.008545,0.013367,-0.000244,0.019531,-0.003906,-0.019531,8.939012,,,
81008119000,0.999878,-0.008545,0.013367,-0.000244,0.019531,-0.003906,-0.019531,8.95562,,,
81028587000,0.999878,-0.008545,0.013367,-0.000244,-0.019531,-0.003906,-0.019531,8.976088,,,
81048586000,0.999878,-0.008545,0.013367,-0.000244,0.019531,0.035156,0.019531,8.996087,,,
81072506000,0.999878,-0.008545,0.013367,-0.000244,-0.019531,-0.003906,0.019531,9.020007,2.63,4.94,6.03
81088367000,0.999878,-0.008545,0.013367,-0.000244,0.019531,-0.003906,-0.019531,9.035868,,,
81108312000,0.999878,-0.008545,0.013367,-0.000244,0.019531,0.035156,-0.019531,9.055813,,,
81128785000,0.999878,-0.008545,0.013367,-0.000244,0.011719,-0.003906,0.019531,9.076286,,,
81153275000,0.999878,-0.008545,0.013367,-0.000244,-0.027344,-0.003906,-0.019531,9.100776,,,
81167566000,0.999878,-0.008545,0.013367,-0.000244,0.011719,-0.003906,-0.019531,9.115067,,,
81187881000,0.999878,-0.008545,0.013367,-0.000244,0.011719,-0.003906,-0.019531,9.135382,,,
81208637000,0.999878,-0.008545,0.013367,-0.000244,0.011719,-0.003906,-0.019531,9.156138,,,
81234054000,0.999878,-0.008545,0.013367,-0.000244,0.011719,-0.003906,0.019531,9.181555,,,
81248307000,0.999878,-0.008545,0.013367,-0.000244,0.011719,-0.003906,0.019531,9.195808,,,
81268081000,0.999878,-0.008545,0.013367,-0.000244,-0.027344,-0.003906,-0.019531,9.215582,2.69,4.97,6.03
81290165000,0.999878,-0.008545,0.013367,-0.000244,-0.027344,-0.003906,0.019531,9.237666,,,
81314425000,0.999878,-0.008545,0.013367,-0.000244,0.011719,0.035156,-0.019531,9.261926,,,
81328045000,0.999878,-0.008545,0.013367,-0.000244,0.011719,-0.003906,-0.019531,9.275546,,,
81347960000,0.999878,-0.008545,0.013367,-0.000244,-0.027344,-0.003906,-0.011719,9.295461,,,
81368247000,0.999878,-0.008545,0.013367,-0.000244,0.011719,-0.003906,0.027344,9.315748,,,
81387157000,0.999878,-0.008545,0.013367,-0.000244,-0.027344,-0.003906,-0.011719,9.334658,,,
81408070000,0.999878,-0.008545,0.013367,-0.000244,0.011719,-0.003906,-0.011719,9.355571,,,
81438598000,0.999878,-0.008545,0.013367,-0.000244,-0.027344,-0.003906,-0.011719,9.386099,,,
81448457000,0.999878,-0.008545,0.013367,-0.000244,-0.027344,-0.003906,-0.011719,9.395958,,,
81466816000,0.999878,-0.008545,0.013367,-0.000244,0.011719,-0.003906,-0.011719,9.414317,2.67,4.96,6.02
81487431000,0.999878,-0.008545,0.013367,-0.000244,0.011719,-0.003906,0.027344,9.434932,,,
81517431000,0.999878,-0.008545,0.013367,-0.000244,0.011719,-0.003906,0.027344,9.464932,,,
81526738000,0.999878,-0.008545,0.013367,-0.000244,0.011719,-0.003906,0.027344,9.474239,,,
81546819000,0.999878,-0.008545,0.013367,-0.000244,-0.027344,-0.003906,-0.011719,9.49432,,,
81566566000,0.999878,-0.008545,0.013367,-0.000244,-0.027344,-0.003906,0.027344,9.514067,,,
81587961000,0.999878,-0.008545,0.013367,-0.000244,-0.027344,-0.003906,0.027344,9.535462,,,
81611990000,0.999878,-0.008545,0.013367,-0.000244,0.011719,0.035156,-0.011719,9.559491,,,
81626613000,0.999878,-0.008545,0.013367,-0.000244,-0.027344,-0.003906,-0.011719,9.574114,,,
81646321000,0.999878,-0.008545,0.013367,-0.000244,0.011719,-0.003906,-0.011719,9.593822,,,
81667568000,0.999878,-0.008545,0.013367,-0.000244,-0.027344,0.035156,-0.011719,9.615069,2.67,4.97,6.03
81693135000,0.999878,-0.008545,0.013367,-0.000244,-0.027344,-0.003906,-0.011719,9.640636,,,
81706303000,0.999878,-0.008545,0.013367,-0.000244,-0.027344,-0.003906,-0.011719,9.653804,,,
81726894000,0.999878,-0.008545,0.013367,-0.000244,0.011719,-0.003906,-0.011719,9.674395,,,
81746895000,0.999878,-0.008545,0.013367,-0.000244,0.011719,-0.003906,-0.011719,9.694396,,,
81776059000,0.999878,-0.008545,0.013367,-0.000244,-0.027344,-0.003906,0.027344,9.72356,,,
81786312000,0.999878,-0.008545,0.013367,-0.000244,0.011719,0.035156,0.027344,9.733813,,,
81806184000,0.999878,-0.008545,0.013367,-0.000244,0.011719,0.035156,0.027344,9.753685,,,
81835701000,0.999878,-0.008545,0.013367,-0.000244,-0.027344,0.035156,0.027344,9.783202,,,
81845796000,0.999878,-0.008545,0.013367,-0.000244,-0.027344,0.035156,0.027344,9.793297,,,
81865818000,0.999878,-0.008545,0.013367,-0.000244,0.011719,0.035156,-0.011719,9.813319,2.73,4.98,6.05
81886482000,0.999878,-0.008545,0.013367,-0.000244,-0.027344,0.035156,-0.011719,9.833983,,,
81908166000,0.999878,-0.008545,0.013367,-0.000244,-0.027344,-0.003906,-0.011719,9.855667,,,
81932266000,0.999878,-0.008545,0.013367,-0.000244,-0.019531,0.035156,0.027344,9.879767,,,
81945750000,0.999878,-0.008545,0.013367,-0.000244,0.019531,-0.011719,-0.011719,9.893251,,,
81966339000,0.999878,-0.008545,0.013367,-0.000244,0.019531,-0.011719,0.027344,9.91384,,,
81995405000,0.999878,-0.008545,0.013367,-0.000244,0.019531,-0.011719,0.019531,9.942906,,,
82006145000,0.999878,-0.008545,0.013367,-0.000244,-0.019531,0.027344,-0.019531,9.953646,,,
82025517000,0.999878,-0.008545,0.013367,-0.000244,-0.019531,-0.011719,-0.019531,9.973018,,,
82047922000,0.999878,-0.008545,0.013367,-0.000244,0.019531,-0.003906,0.019531,9.995423,,,
82065732000,0.999878,-0.008545,0.013367,-0.000244,0.019531,-0.003906,-0.019531,10.013233,2.67,4.96,6.02
82086231000,0.999878,-0.008545,0.013367,-0.000244,-0.019531,-0.003906,0.027344,10.033732,,,
82106538000,0.999878,-0.008545,0.013367,-0.000244,-0.019531,-0.003906,-0.011719,10.054039,,,
82130897000,0.999878,-0.008545,0.013306,-0.000244,0.019531,0.035156,0.027344,10.078398,,,
82145500000,0.999878,-0.008606,0.013367,-0.000244,-0.019531,0.035156,0.027344,10.093001,,,
82175666000,0.999878,-0.008606,0.013367,-0.000244,0.019531,-0.003906,-0.011719,10.123167,,,
82189525000,0.999878,-0.008606,0.013367,-0.000244,0.019531,-0.003906,0.027344,10.137026,,,
82205433000,0.999878,-0.008606,0.013367,-0.000244,-0.019531,-0.003906,-0.011719,10.152934,,,
82226010000,0.999878,-0.008606,0.013428,-0.000244,-0.019531,-0.003906,-0.011719,10.173511,,,
82245224000,0.999878,-0.008545,0.013428,-0.000244,0.019531,-0.003906,0.027344,10.192725,,,
82275086000,0.999878,-0.008545,0.013367,-0.000244,0.019531,0.035156,0.027344,10.222587,2.68,4.98,6.03
82285022000,0.999878,-0.008545,0.013367,-0.000244,-0.019531,-0.042969,-0.011719,10.232523,,,
82305703000,0.999878,-0.008484,0.013367,-0.000244,0.019531,-0.003906,-0.011719,10.253204,,,
82325626000,0.999878,-0.008484,0.013428,-0.000244,0.019531,-0.003906,-0.011719,10.273127,,,
82355070000,0.999878,-0.008423,0.013428,-0.000244,0.019531,0.035156,-0.011719,10.302571,,,
82364932000,0.999878,-0.008423,0.013428,-0.000244,-0.027344,-0.003906,-0.011719,10.312433,,,
82385552000,0.999878,-0.008423,0.013428,-0.000244,-0.027344,0.035156,-0.050781,10.333053,,,
82406021000,0.999878,-0.008362,0.013428,-0.000244,0.011719,-0.003906,0.027344,10.353522,,,
82435052000,0.999878,-0.008423,0.013428,-0.000244,-0.027344,-0.003906,-0.011719,10.382553,,,
82444759000,0.999878,-0.008423,0.013428,-0.000244,-0.027344,-0.003906,-0.011719,10.39226,,,
82465829000,0.999878,-0.008423,0.013428,-0.000244,-0.027344,-0.003906,0.027344,10.41333,2.69,4.95,6.04
82485154000,0.999878,-0.008423,0.013428,-0.000244,0.011719,-0.003906,-0.011719,10.432655,,,
82514869000,0.999878,-0.008423,0.013367,-0.000244,-0.027344,-0.003906,-0.011719,10.46237,,,
82524832000,0.999878,-0.008362,0.013367,-0.000244,-0.027344,-0.003906,-0.011719,10.472333,,,
82544991000,0.999878,-0.008423,0.013367,-0.000244,0.019531,-0.003906,-0.011719,10.492492,,,
82565038000,0.999878,-0.008423,0.013367,-0.000305,0.019531,-0.003906,0.027344,10.512539,,,
82594753000,0.999878,-0.008423,0.013367,-0.000244,-0.019531,-0.042969,-0.011719,10.542254,,,
82604630000,0.999878,-0.008423,0.013367,-0.000244,-0.019531,0.035156,-0.050781,10.552131,,,
82633821000,0.999878,-0.008484,0.013367,-0.000244,-0.054688,-0.003906,-0.011719,10.581322,,,
82644450000,0.999878,-0.008484,0.013367,-0.000244,0.058594,-0.042969,0.027344,10.591951,,,
82665176000,0.999878,-0.008423,0.013428,-0.000244,0.058594,-0.003906,0.0625,10.612677,2.69,4.97,6.03
82686563000,0.999878,-0.008301,0.013489,-6.1e-05,-0.054688,-0.042969,-0.128906,10.634064,,,
82714419000,0.999878,-0.008484,0.013306,0.000488,0.433594,-0.339844,-0.050781,10.66192,,,
82724348000,0.999878,-0.008423,0.013306,0.001221,0.546875,-0.5625,0.0625,10.671849,,,
82745005000,0.999878,-0.008301,0.013184,0.002747,-0.339844,0.210938,-0.011719,10.692506,,,
82764655000,0.999878,-0.008362,0.013123,0.00293,-0.457031,0.59375,-0.050781,10.712156,,,
82793378000,0.999878,-0.008423,0.013123,0.00293,-0.027344,0.050781,-0.003906,10.740879,,,
82803219000,0.999878,-0.008484,0.013123,0.002991,0.011719,-0.027344,-0.003906,10.75072,,,
82824610000,0.999878,-0.008545,0.013123,0.003601,0.28125,-0.179688,-0.003906,10.772111,,,
82844438000,0.999878,-0.008789,0.013,0.004761,0.546875,-0.25,0.035156,10.791939,,,
82873382000,0.999878,-0.009399,0.012939,0.006775,-0.101562,-0.011719,0.109375,10.820883,2.71,4.99,6.03
82884036000,0.999817,-0.009583,0.012878,0.007385,-0.253906,0.339844,0.035156,10.831537,,,
82904813000,0.999817,-0.009888,0.012939,0.008118,0.089844,0.042969,0.035156,10.852314,,,
82924688000,0.999817,-0.010376,0.013,0.008423,0.050781,0.050781,0.035156,10.872189,,,
82953055000,0.999817,-0.011169,0.013184,0.008972,0.210938,0.027344,-0.195312,10.900556,,,
82970064000,0.999817,-0.011414,0.013184,0.009277,-0.09375,-0.203125,0.070312,10.917565,,,
82987480000,0.999817,-0.011841,0.013306,0.009949,-0.125,0.148438,-0.121094,10.934981,,,
83004593000,0.999756,-0.012329,0.013306,0.010742,0.105469,-0.109375,0.109375,10.952094,,,
83024832000,0.999756,-0.012695,0.013367,0.011475,0.144531,-0.0625,-0.003906,10.972333,,,
83053315000,0.999756,-0.013489,0.01355,0.012634,0.152344,-0.085938,0.1875,11.000816,,,
83069471000,0.999756,-0.013611,0.013672,0.013062,0.035156,-0.003906,-0.195312,11.016972,2.72,4.98,6.04
83084483000,0.999695,-0.014038,0.013672,0.013855,-0.195312,0.1875,0.035156,11.031984,,,
83113326000,0.999695,-0.014526,0.013855,0.015564,-0.222656,0.128906,-0.121094,11.060827,,,
83132595000,0.999634,-0.014771,0.013855,0.016541,0.234375,0.175781,0.078125,11.080096,,,
83143403000,0.999634,-0.014893,0.013916,0.016968,0.195312,0.097656,0.308594,11.090904,,,
83164589000,0.999634,-0.014893,0.013916,0.017761,0.160156,-0.09375,-0.035156,11.11209,,,
83192544000,0.999634,-0.014954,0.013855,0.018127,0.082031,0.175781,-0.074219,11.140045,,,
83203287000,0.999634,-0.015076,0.013794,0.018066,0.234375,-0.132812,0.003906,11.150788,,,
83232458000,0.999634,-0.015625,0.014038,0.017761,0.160156,0.183594,0.308594,11.179959,,,
83252214000,0.999634,-0.016418,0.015442,0.016846,-2.015625,0.648438,1.074219,11.199715,,,
83272523000,0.999573,-0.016785,0.016602,0.015991,-0.03125,0.207031,-0.152344,11.220024,2.72,4.97,6.04
83283854000,0.999573,-0.016785,0.017639,0.015747,0.597656,0.042969,0.195312,11.231355,,,
83312359000,0.999512,-0.016479,0.02063,0.016602,1.035156,0.007812,-0.417969,11.25986,,,
83332009000,0.999512,-0.015808,0.019775,0.018372,1.25,-0.191406,-1.492188,11.27951,,,
83352355000,0.999451,-0.015808,0.019531,0.020325,-1.273438,-0.09375,0.691406,11.299856,,,
83378775000,0.999451,-0.015686,0.018921,0.021851,-0.773438,0.027344,-0.226562,11.326276,,,
83395162000,0.999512,-0.015747,0.016846,0.022339,0.046875,0.257812,-0.839844,11.342663,,,
83411730000,0.999512,-0.015503,0.015808,0.021729,-1.425781,0.289062,3.105469,11.359231,,,
83431860000,0.999573,-0.015564,0.015381,0.020691,0.066406,0.183594,0.195312,11.379361,,,
83456168000,0.999573,-0.015442,0.015137,0.01947,-0.054688,0.175781,-0.074219,11.403669,,,
83463215000,0.999573,-0.01532,0.014832,0.019043,0.167969,-0.285156,0.003906,11.410716,,,
83491107000,0.999573,-0.014954,0.014771,0.019165,0.050781,-0.0625,0.042969,11.438608,2.74,4.99,6.02
83511701000,0.999573,-0.015137,0.014709,0.019897,-0.253906,-0.023438,0.042969,11.459202,,,
83536712000,0.999573,-0.01532,0.014893,0.020874,0.28125,-0.171875,-0.035156,11.484213,,,
83551296000,0.999512,-0.015503,0.014832,0.02179,-0.214844,0.136719,0.078125,11.498797,,,
83571309000,0.999512,-0.015625,0.015015,0.022644,-0.171875,-0.046875,0.195312,11.51881,,,
83590708000,0.999512,-0.015686,0.015015,0.023254,0.25,0.066406,0.003906,11.538209,,,
83618667000,0.999512,-0.015686,0.014954,0.02356,0.328125,-0.046875,-0.074219,11.566168,,,
83630817000,0.999512,-0.015625,0.015015,0.023743,-0.285156,0.21875,0.078125,11.578318,,,
83651746000,0.999512,-0.015259,0.014893,0.023987,0.019531,0.097656,0.003906,11.599247,,,
83673265000,0.999451,-0.015076,0.014954,0.024292,0.058594,-0.09375,0.15625,11.620766,,,
83691148000,0.999512,-0.015015,0.014893,0.024109,0.367188,0.28125,0.003906,11.638649,,,
83710968000,0.999512,-0.014954,0.014832,0.023682,0.175781,-0.0625,-0.417969,11.658469,,,
83731065000,0.999512,-0.015137,0.014832,0.023132,-0.015625,-0.179688,0.078125,11.678566,,,
83751140000,0.999512,-0.015137,0.014832,0.022949,-0.402344,-0.0625,0.15625,11.698641,,,
83776362000,0.999512,-0.015137,0.014771,0.022888,-0.363281,-0.09375,-0.1875,11.723863,,,
83790497000,0.999512,-0.015198,0.014832,0.022888,-0.132812,0.136719,0.078125,11.737998,,,
83810662000,0.999512,-0.015076,0.014709,0.022644,-0.246094,0.097656,-0.074219,11.758163,,,
83830698000,0.999512,-0.015198,0.014648,0.022461,0.210938,-0.023438,0.078125,11.778199,,,
83853083000,0.999512,-0.01532,0.014648,0.022461,0.058594,0.058594,0.042969,11.800584,,,
83870339000,0.999512,-0.015381,0.014709,0.022156,-0.402344,0.097656,0.117188,11.81784,,,
83890913000,0.999512,-0.015198,0.014587,0.021912,-0.015625,0.019531,-0.1875,11.838414,,,
83910496000,0.999573,-0.015015,0.014526,0.02179,0.128906,0.019531,0.003906,11.857997,,,
83934018000,0.999573,-0.014832,0.014465,0.021851,0.433594,0.011719,0.003906,11.881519,,,
83950474000,0.999512,-0.014832,0.014465,0.022095,0.742188,0.050781,0.003906,11.897975,,,
83970882000,0.999512,-0.014771,0.014465,0.022217,-0.214844,-0.101562,0.003906,11.918383,,,
83990696000,0.999512,-0.014343,0.014221,0.022522,-0.261719,0.121094,0.042969,11.938197,,,
84020507000,0.999512,-0.015137,0.014282,0.023071,0.082031,-0.148438,0.117188,11.968008,,,
84030565000,0.999512,-0.014954,0.014282,0.023315,0.089844,0.011719,0.003906,11.978066,,,
84050720000,0.999512,-0.014465,0.014099,0.023926,0.359375,-0.140625,-0.035156,11.998221,,,
84069909000,0.999512,-0.014648,0.014221,0.024292,0.464844,0.195312,0.386719,12.01741,,,
84089764000,0.999512,-0.014832,0.014282,0.024109,-0.675781,0.195312,0.5,12.037265,,,
84110720000,0.999512,-0.014465,0.014282,0.02417,-0.292969,-0.101562,0.003906,12.058221,,,
84129923000,0.999512,-0.015015,0.014404,0.024231,-2.285156,0.550781,-0.304688,12.077424,,,
84150060000,0.999512,-0.014526,0.01416,0.024353,0.128906,-0.140625,0.003906,12.097561,,,
84169568000,0.999512,-0.014404,0.014709,0.024475,0.359375,-0.1875,0.300781,12.117069,,,
84189492000,0.999451,-0.014832,0.015503,0.024658,1.523438,-0.15625,0.617188,12.136993,,,
84209241000,0.999451,-0.014954,0.01593,0.024719,-0.761719,-0.148438,0.769531,12.156742,,,
84239376000,0.999451,-0.014221,0.015625,0.024902,-0.453125,0.160156,-0.195312,12.186877,,,
84254233000,0.999451,-0.014282,0.015564,0.024841,0.082031,0.113281,0.226562,12.201734,,,
84269828000,0.999451,-0.014221,0.015381,0.024719,-0.117188,-0.078125,-0.003906,12.217329,,,
84289569000,0.999512,-0.01416,0.01532,0.024414,-0.308594,-0.039062,0.109375,12.23707,,,
84310238000,0.999512,-0.014221,0.015259,0.024231,-0.238281,-0.039062,-0.011719,12.257739,,,
84333311000,0.999512,-0.014221,0.015198,0.024048,-0.125,-0.003906,0.027344,12.280812,,,
84349027000,0.999512,-0.014465,0.015259,0.023987,-0.316406,-0.039062,-0.050781,12.296528,,,
84368953000,0.999512,-0.014404,0.015259,0.023987,-0.46875,-0.003906,-0.011719,12.316454,,,
84388900000,0.999512,-0.014587,0.015198,0.024048,0.105469,0.035156,0.0625,12.336401,,,
84409398000,0.999512,-0.014221,0.015015,0.024475,1.445312,-0.230469,-0.167969,12.356899,,,
84429398000,0.999512,-0.014282,0.014893,0.024597,-0.660156,0.074219,0.035156,12.376899,,,
84449034000,0.999512,-0.012878,0.014038,0.024597,-0.402344,-0.15625,-0.28125,12.396535,,,
84468784000,0.999512,-0.011841,0.013245,0.024536,-0.691406,0.1875,0.371094,12.416285,,,
84498813000,0.999512,-0.012573,0.013794,0.024475,-0.03125,-0.042969,-0.089844,12.446314,,,
84514008000,0.999512,-0.012329,0.013672,0.024475,-0.03125,-0.117188,-0.167969,12.461509,,,
84528364000,0.999512,-0.012146,0.01355,0.024475,-0.03125,0.035156,0.0625,12.475865,,,
84548486000,0.999512,-0.012207,0.013611,0.024475,0.003906,-0.003906,-0.011719,12.495987,,,
84569028000,0.999512,-0.012207,0.013611,0.024475,0.003906,-0.003906,-0.011719,12.516529,,,
84590054000,0.999512,-0.012329,0.013672,0.024475,-0.03125,-0.003906,0.027344,12.537555,,,
84608871000,0.999512,-0.012451,0.013733,0.024475,0.042969,-0.003906,0.0625,12.556372,,,
84628509000,0.999512,-0.012695,0.013855,0.024475,0.003906,0.003906,0.027344,12.57601,,,
84648144000,0.999512,-0.012939,0.014038,0.024475,0.011719,-0.035156,0.027344,12.595645,,,
84678131000,0.999512,-0.013306,0.01416,0.024414,0.011719,-0.027344,0.027344,12.625632,,,
84688087000,0.999512,-0.013367,0.01416,0.024414,0.011719,0.011719,-0.011719,12.635588,,,
84708254000,0.999512,-0.013367,0.01416,0.024475,-0.023438,-0.019531,-0.011719,12.655755,,,
84728315000,0.999512,-0.013367,0.014221,0.024414,-0.023438,0.019531,0.0625,12.675816,,,
84751394000,0.999512,-0.013428,0.014221,0.024414,0.011719,-0.019531,-0.011719,12.698895,,,
84772521000,0.999512,-0.013306,0.014221,0.024414,0.011719,0.019531,-0.011719,12.720022,,,
84787699000,0.999512,-0.013367,0.014221,0.024414,0.011719,0.019531,0.027344,12.7352,,,
84809935000,0.999512,-0.013306,0.014221,0.024414,-0.023438,-0.019531,-0.011719,12.757436,,,
84827582000,0.999512,-0.013306,0.01416,0.024414,0.003906,0.003906,0.011719,12.775083,,,
84848142000,0.999512,-0.013306,0.01416,0.024414,0.003906,-0.035156,0.011719,12.795643,,,
84867857000,0.999512,-0.013306,0.01416,0.024414,0.003906,0.003906,-0.027344,12.815358,,,
84892038000,0.999512,-0.013367,0.01416,0.024414,0.003906,-0.035156,0.011719,12.839539,,,
84907660000,0.999512,-0.013367,0.01416,0.024414,0.003906,-0.035156,-0.027344,12.855161,,,
84931110000,0.999512,-0.013367,0.01416,0.024414,0.003906,0.003906,0.011719,12.878611,,,
84947583000,0.999512,-0.013367,0.01416,0.024414,-0.03125,-0.035156,-0.027344,12.895084,,,
84968073000,0.999512,-0.013306,0.014099,0.024414,0.003906,0.011719,-0.027344,12.915574,,,
84988888000,0.999512,-0.013306,0.014099,0.024414,0.003906,-0.027344,-0.027344,12.936389,,,
85012568000,0.999512,-0.013306,0.014038,0.024414,0.003906,0.011719,0.019531,12.960069,,,
85027710000,0.999512,-0.013306,0.014099,0.024414,-0.03125,-0.027344,0.019531,12.975211,,,
85048046000,0.999512,-0.013306,0.014038,0.024414,0.003906,-0.027344,-0.019531,12.995547,,,
85067705000,0.999512,-0.013306,0.014099,0.024414,0.003906,-0.027344,0.019531,13.015206,,,
85091037000,0.999512,-0.013306,0.014099,0.024414,-0.03125,0.003906,0.019531,13.038538,,,
85107629000,0.999512,-0.013306,0.014099,0.024414,-0.03125,-0.035156,0.019531,13.05513,,,
85127598000,0.999512,-0.013245,0.014038,0.024414,0.003906,0.003906,-0.019531,13.075099,,,
85147954000,0.999512,-0.013245,0.014099,0.024414,0.003906,0.003906,-0.019531,13.095455,,,
85177318000,0.999512,-0.013245,0.014099,0.024414,0.011719,0.003906,-0.019531,13.124819,,,
85187902000,0.999512,-0.013245,0.014099,0.024414,-0.023438,-0.035156,0.019531,13.135403,,,
85207383000,0.999512,-0.013245,0.014099,0.024414,0.011719,-0.035156,-0.019531,13.154884,,,
85227287000,0.999512,-0.013184,0.014099,0.024414,0.011719,0.003906,0.019531,13.174788,,,
85256925000,0.999512,-0.013184,0.014099,0.024414,-0.023438,0.011719,-0.019531,13.204426,,,
85266873000,0.999512,-0.013184,0.014099,0.024414,0.011719,0.011719,0.019531,13.214374,,,
85287059000,0.999512,-0.013184,0.014099,0.024414,0.011719,-0.027344,0.019531,13.23456,,,
85306788000,0.999512,-0.013184,0.014099,0.024414,0.011719,0.011719,-0.019531,13.254289,,,
85327464000,0.999512,-0.013184,0.014099,0.024414,-0.023438,-0.027344,0.019531,13.274965,,,
85346450000,0.999512,-0.013123,0.014099,0.024414,0.011719,-0.027344,0.011719,13.293951,,,
85368040000,0.999512,-0.013123,0.014099,0.024414,-0.023438,0.011719,0.011719,13.315541,,,
85390780000,0.999512,-0.013123,0.014099,0.024414,-0.023438,0.011719,0.011719,13.338281,,,
85406481000,0.999512,-0.013062,0.014099,0.024414,-0.023438,-0.027344,-0.027344,13.353982,,,
85426323000,0.999512,-0.013062,0.014099,0.024414,-0.023438,0.011719,-0.066406,13.373824,,,
85446886000,0.999512,-0.013,0.014038,0.024414,-0.023438,-0.027344,0.011719,13.394387,,,
85469265000,0.999512,-0.013,0.014099,0.024414,-0.023438,-0.027344,0.011719,13.416766,,,
85486280000,0.999512,-0.013,0.014038,0.024414,0.011719,-0.027344,0.011719,13.433781,,,
85506123000,0.999512,-0.013,0.014038,0.024414,-0.023438,0.011719,-0.027344,13.453624,,,
85526389000,0.999512,-0.013,0.014038,0.024414,-0.023438,-0.027344,0.011719,13.47389,,,
85556407000,0.999512,-0.013,0.013977,0.024414,0.011719,0.011719,-0.027344,13.503908,,,
85566101000,0.999512,-0.013,0.013977,0.024414,0.011719,0.011719,-0.027344,13.513602,,,
85586154000,0.999512,-0.012878,0.013977,0.024414,0.011719,-0.027344,0.019531,13.533655,,,
85606184000,0.999512,-0.012817,0.013977,0.024414,0.011719,0.003906,-0.019531,13.553685,,,
85626521000,0.999512,-0.012878,0.013916,0.024414,0.011719,0.003906,0.019531,13.574022,,,
85651483000,0.999512,-0.012878,0.013916,0.024414,0.011719,-0.035156,-0.019531,13.598984,,,
85665850000,0.999512,-0.012878,0.013916,0.024475,0.003906,0.003906,0.019531,13.613351,,,
85686180000,0.999512,-0.012878,0.013916,0.024475,-0.03125,0.003906,-0.019531,13.633681,,,
85705961000,0.999512,-0.012878,0.013855,0.024475,0.003906,0.003906,0.019531,13.653462,,,
85727484000,0.999512,-0.012939,0.013916,0.024475,0.003906,-0.035156,-0.019531,13.674985,,,
85751617000,0.999512,-0.012939,0.013916,0.024475,-0.023438,0.003906,0.019531,13.699118,,,
85765390000,0.999512,-0.012939,0.013916,0.024475,0.011719,-0.027344,-0.058594,13.712891,,,
85786431000,0.999512,-0.012939,0.013916,0.024475,0.011719,0.011719,-0.019531,13.733932,,,
85815865000,0.999512,-0.013,0.013977,0.024414,-0.023438,0.011719,0.019531,13.763366,,,
85825857000,0.999512,-0.013,0.013977,0.024414,0.011719,0.011719,-0.019531,13.773358,,,
85845570000,0.999512,-0.013,0.013977,0.024414,0.011719,0.011719,-0.019531,13.793071,,,
85865633000,0.999512,-0.013,0.013977,0.024414,-0.023438,0.011719,-0.019531,13.813134,,,
85885949000,0.999512,-0.013,0.013977,0.024414,0.011719,-0.027344,-0.019531,13.83345,,,
85914982000,0.999512,-0.013,0.013977,0.024414,0.011719,0.011719,0.019531,13.862483,,,
85925415000,0.999512,-0.013,0.013977,0.024414,0.003906,0.011719,-0.019531,13.872916,,,
85945471000,0.999512,-0.013,0.013977,0.024414,0.003906,-0.027344,0.019531,13.892972,,,
85965268000,0.999512,-0.013,0.013977,0.024414,0.003906,-0.027344,0.019531,13.912769,,,
85986012000,0.999512,-0.013,0.013977,0.024414,0.003906,0.011719,-0.019531,13.933513,,,
86015188000,0.999512,-0.013,0.013977,0.024414,0.003906,0.011719,0.019531,13.962689,,,
86024942000,0.999512,-0.013,0.013977,0.024414,-0.03125,0.011719,0.019531,13.972443,,,
86045291000,0.999512,-0.013,0.013977,0.024475,-0.03125,0.011719,0.019531,13.992792,,,
86064892000,0.999512,-0.013,0.013977,0.024475,0.003906,-0.027344,-0.019531,14.012393,,,
86095428000,0.999512,-0.013,0.013977,0.024475,-0.03125,0.011719,-0.019531,14.042929,,,
86104388000,0.999512,-0.013,0.013977,0.024475,0.003906,0.011719,-0.019531,14.051889,,,
86125135000,0.999512,-0.013,0.013977,0.024475,-0.03125,-0.027344,0.019531,14.072636,,,
86145007000,0.999512,-0.013,0.013977,0.024475,-0.03125,0.011719,0.019531,14.092508,,,
86174398000,0.999512,-0.013,0.013977,0.024475,-0.023438,0.011719,-0.019531,14.121899,,,
86184245000,0.999512,-0.013,0.013977,0.024475,0.011719,0.011719,0.019531,14.131746,,,
86205003000,0.999512,-0.013,0.013977,0.024475,-0.023438,0.011719,-0.019531,14.152504,,,
86224829000,0.999512,-0.013,0.013977,0.024475,0.011719,-0.027344,0.019531,14.17233,,,
86244939000,0.999512,-0.013,0.013977,0.024475,-0.023438,0.011719,0.019531,14.19244,,,
86274930000,0.999512,-0.013,0.013977,0.024475,0.011719,-0.027344,-0.019531,14.222431,,,
86284122000,0.999512,-0.013,0.013977,0.024475,-0.023438,0.011719,0.019531,14.231623,,,
86304756000,0.999512,-0.013,0.013977,0.024475,-0.023438,0.011719,-0.019531,14.252257,,,
86324893000,0.999512,-0.013,0.013977,0.024475,0.011719,0.011719,-0.019531,14.272394,,,
86345399000,0.999512,-0.013,0.013977,0.024475,0.011719,0.011719,-0.019531,14.2929,,,
86373722000,0.999512,-0.013,0.013977,0.024475,0.011719,-0.027344,-0.019531,14.321223,,,
86383903000,0.999512,-0.013,0.013977,0.024475,-0.023438,0.011719,0.019531,14.331404,,,
86413580000,0.999512,-0.013,0.013977,0.024475,-0.023438,0.011719,-0.058594,14.361081,,,
86423763000,0.999512,-0.013,0.013977,0.024475,0.011719,-0.027344,0.019531,14.371264,,,
86453488000,0.999512,-0.013,0.013977,0.024475,-0.023438,-0.027344,-0.019531,14.400989,,,
86465247000,0.999512,-0.013,0.013977,0.024475,0.011719,0.011719,-0.011719,14.412748,,,
86484429000,0.999512,-0.013,0.013977,0.024475,0.011719,0.011719,0.027344,14.43193,,,
86513307000,0.999512,-0.013,0.013977,0.024475,0.011719,0.011719,-0.011719,14.460808,,,
86523100000,0.999512,-0.013,0.013977,0.024475,0.011719,0.011719,0.027344,14.470601,,,
86544390000,0.999512,-0.013,0.013977,0.024475,0.011719,0.011719,0.027344,14.491891,,,
86564435000,0.999512,-0.013,0.013977,0.024475,-0.023438,0.011719,0.027344,14.511936,,,
86592939000,0.999512,-0.013,0.013977,0.024475,0.011719,0.011719,-0.019531,14.54044,,,
86603133000,0.999512,-0.013,0.013977,0.024475,-0.023438,-0.027344,-0.019531,14.550634,,,
86624400000,0.999512,-0.013,0.013977,0.024475,0.011719,0.011719,-0.019531,14.571901,,,
86644405000,0.999512,-0.013,0.013977,0.024475,0.011719,0.011719,-0.011719,14.591906,,,
86672861000,0.999512,-0.013,0.013977,0.024475,0.011719,-0.027344,0.027344,14.620362,,,
86683269000,0.999512,-0.013,0.013977,0.024475,0.011719,0.011719,-0.011719,14.63077,,,
86704485000,0.999512,-0.013,0.013977,0.024475,0.011719,-0.027344,-0.011719,14.651986,,,
86724441000,0.999512,-0.013,0.013977,0.024475,-0.023438,0.011719,0.027344,14.671942,,,
86752547000,0.999512,-0.013,0.013977,0.024475,-0.023438,0.011719,-0.011719,14.700048,,,
86763305000,0.999512,-0.013,0.013977,0.024475,-0.023438,0.011719,0.027344,14.710806,,,
86794828000,0.999512,-0.013,0.013977,0.024475,0.011719,-0.027344,-0.011719,14.742329,,,
86803361000,0.999512,-0.013,0.013977,0.024475,0.011719,-0.027344,-0.011719,14.750862,,,
86834576000,0.999512,-0.013,0.013977,0.024475,0.011719,0.011719,0.027344,14.782077,,,
86843152000,0.999512,-0.013,0.013977,0.024475,-0.023438,0.011719,0.027344,14.790653,,,
86872533000,0.999512,-0.013,0.013977,0.024475,0.011719,0.011719,-0.011719,14.820034,,,
86892244000,0.999512,-0.013,0.013977,0.024475,-0.023438,0.011719,0.027344,14.839745,,,
86912686000,0.999512,-0.013,0.013977,0.024475,0.011719,-0.027344,0.027344,14.860187,,,
86933547000,0.999512,-0.013,0.013977,0.024475,0.011719,-0.027344,-0.011719,14.881048,,,
86957887000,0.999512,-0.013,0.013977,0.024475,-0.023438,-0.027344,-0.011719,14.905388,,,
86972294000,0.999512,-0.013,0.013977,0.024475,0.011719,0.011719,0.027344,14.919795,,,
86992791000,0.999512,-0.013,0.013977,0.024475,0.011719,0.011719,-0.011719,14.940292,,,
87012481000,0.999512,-0.013,0.013977,0.024475,0.011719,0.011719,-0.011719,14.959982,,,
87033113000,0.999512,-0.013,0.013977,0.024475,-0.023438,0.011719,0.027344,14.980614,,,
87052323000,0.999512,-0.013,0.013977,0.024475,0.011719,0.011719,-0.011719,14.999824,,,
87072278000,0.999512,-0.013,0.013977,0.024475,0.011719,-0.027344,0.027344,15.019779,,,
87093874000,0.999512,-0.013,0.013977,0.024475,0.011719,0.011719,-0.011719,15.041375,,,
87111502000,0.999512,-0.013,0.013977,0.024475,0.011719,0.011719,-0.011719,15.059003,,,
87133868000,0.999512,-0.013,0.013977,0.024475,0.011719,0.011719,0.027344,15.081369,,,
87155487000,0.999512,-0.013,0.013977,0.024475,-0.023438,0.011719,-0.011719,15.102988,,,
87172335000,0.999512,-0.013,0.013977,0.024475,0.011719,0.011719,-0.011719,15.119836,,,
87191825000,0.999512,-0.013,0.013977,0.024475,0.011719,0.011719,-0.011719,15.139326,,,
87211659000,0.999512,-0.013,0.013977,0.024475,0.011719,0.011719,-0.011719,15.15916,,,
87233589000,0.999512,-0.013,0.013977,0.024475,-0.023438,0.011719,-0.011719,15.18109,,,
87251804000,0.999512,-0.013,0.013977,0.024475,0.050781,0.011719,0.027344,15.199305,,,
87271360000,0.999512,-0.013,0.013977,0.024475,0.011719,0.003906,-0.011719,15.218861,,,
87292232000,0.999512,-0.013,0.013977,0.024475,-0.023438,0.003906,-0.011719,15.239733,,,
87311307000,0.999512,-0.012878,0.013855,0.024353,0.195312,0.003906,-0.050781,15.258808,,,
87332093000,0.999512,-0.013123,0.013733,0.023926,0.871094,-0.035156,-0.011719,15.279594,,,
87351172000,0.999573,-0.013611,0.013733,0.023071,0.128906,-0.21875,-0.050781,15.298673,,,
87371676000,0.999573,-0.015137,0.013672,0.022034,0.355469,0.304688,-0.242188,15.319177,,,
87392146000,0.999573,-0.015869,0.01355,0.021362,0.082031,-0.015625,-0.003906,15.339647,,,
87415866000,0.999573,-0.015686,0.01355,0.021606,0.003906,-0.347656,-0.160156,15.363367,,,
87430866000,0.999573,-0.015686,0.013489,0.021973,0.195312,0.035156,-0.121094,15.378367,,,
87450934000,0.999512,-0.015991,0.01355,0.022522,0.035156,0.113281,0.148438,15.398435,,,
87470913000,0.999512,-0.01593,0.013367,0.023315,0.113281,0.035156,0.070312,15.418414,,,
87492832000,0.999512,-0.015625,0.013245,0.023499,-0.042969,0.0,-0.003906,15.440333,,,
87510749000,0.999512,-0.015686,0.013245,0.023315,0.296875,0.375,0.0625,15.45825,,,
87531104000,0.999512,-0.015564,0.013306,0.023132,0.523438,0.144531,0.101562,15.478605,,,
87550878000,0.999512,-0.015747,0.01355,0.02301,-0.433594,0.21875,-0.160156,15.498379,,,
87572790000,0.999512,-0.015686,0.013367,0.023071,-0.085938,0.257812,-0.082031,15.520291,,,
87593051000,0.999512,-0.015503,0.013184,0.023071,0.289062,0.027344,-0.042969,15.540552,,,
87610640000,0.999512,-0.015564,0.013306,0.02301,0.132812,-0.125,-0.003906,15.558141,,,
87630648000,0.999512,-0.015625,0.013306,0.022949,0.210938,-0.046875,-0.082031,15.578149,,,
87650719000,0.999512,-0.015564,0.013062,0.022949,-0.363281,-0.085938,-0.082031,15.59822,,,
87673185000,0.999512,-0.015808,0.013245,0.022888,0.011719,-0.007812,0.261719,15.620686,,,
87690854000,0.999512,-0.015564,0.013184,0.022766,-0.410156,-0.117188,0.261719,15.638355,,,
87710327000,0.999512,-0.015686,0.013123,0.022766,-0.101562,-0.046875,0.070312,15.657828,,,
87734425000,0.999512,-0.015381,0.013,0.022705,-0.066406,-0.117188,-0.121094,15.681926,,,
87749917000,0.999512,-0.01532,0.013062,0.022705,-0.21875,0.097656,0.148438,15.697418,,,
87770339000,0.999512,-0.015259,0.013062,0.022766,-0.066406,-0.015625,0.035156,15.71784,,,
87790297000,0.999573,-0.015015,0.012878,0.022827,-0.300781,0.175781,-0.003906,15.737798,,,
87813472000,0.999573,-0.015015,0.012878,0.022827,-0.195312,0.089844,0.226562,15.760973,,,
87829701000,0.999573,-0.014893,0.012756,0.022827,0.15625,-0.09375,-0.273438,15.777202,,,
87850523000,0.999573,-0.014893,0.012878,0.022705,0.003906,0.050781,0.148438,15.798024,,,
87869854000,0.999573,-0.014893,0.012817,0.022583,-0.226562,0.097656,-0.082031,15.817355,,,
87890167000,0.999573,-0.014954,0.012878,0.022339,0.003906,0.097656,-0.003906,15.837668,2.82,,6.0
87909999000,0.999573,-0.014893,0.012878,0.022095,0.117188,0.136719,0.109375,15.8575,,,
87930230000,0.999573,-0.015198,0.012878,0.02179,-0.265625,0.136719,0.1875,15.877731,,,
87955495000,0.999573,-0.014771,0.012695,0.021545,0.15625,0.019531,-0.195312,15.902996,,,
87969452000,0.999573,-0.015015,0.012695,0.02124,-0.226562,0.128906,0.0625,15.916953,,,
87989231000,0.999573,-0.014771,0.012695,0.020996,-0.15625,-0.0625,0.027344,15.936732,,,
88010771000,0.999573,-0.014954,0.012695,0.02063,-0.425781,0.128906,0.0625,15.958272,,,
88034310000,0.999634,-0.014648,0.012451,0.020386,-0.195312,-0.03125,0.140625,15.981811,,,
88049064000,0.999634,-0.014893,0.01239,0.020264,-0.234375,-0.214844,-0.195312,15.996565,,,
88069619000,0.999634,-0.014648,0.01239,0.020142,-0.234375,0.089844,0.035156,16.01712,2.74,,6.0
88093401000,0.999634,-0.014709,0.012329,0.02002,-0.464844,0.160156,0.261719,16.040902,,,
88109334000,0.999634,-0.014771,0.012329,0.019958,0.035156,-0.1875,-0.003906,16.056835,,,
88129027000,0.999634,-0.014648,0.012268,0.019897,0.1875,0.011719,-0.195312,16.076528,,,
88149694000,0.999634,-0.014832,0.012329,0.019836,-0.695312,0.042969,0.070312,16.097195,,,
88172475000,0.999634,-0.014771,0.012329,0.019775,0.109375,0.050781,0.035156,16.119976,,,
88189172000,0.999634,-0.014648,0.012268,0.019653,-0.15625,0.003906,-0.082031,16.136673,,,
88208856000,0.999634,-0.014526,0.012207,0.019531,0.082031,-0.03125,0.035156,16.156357,,,
88228953000,0.999634,-0.014526,0.012268,0.01947,0.425781,-0.070312,0.035156,16.176454,,,
88258691000,0.999634,-0.014587,0.012146,0.019409,-0.417969,0.234375,0.378906,16.206192,,,
88274141000,0.999634,-0.01416,0.011902,0.019409,-0.109375,-0.332031,-0.3125,16.221642,,,
88288542000,0.999634,-0.014709,0.012085,0.019226,-0.1875,0.542969,0.261719,16.236043,,,
88309127000,0.999634,-0.014343,0.011841,0.019104,-0.265625,-0.148438,0.035156,16.256628,,,
88328855000,0.999634,-0.014648,0.011841,0.018921,0.273438,-0.03125,-0.082031,16.276356,,,
88352983000,0.999634,-0.014587,0.011902,0.018799,0.347656,-0.179688,-0.121094,16.300484,,,
88368513000,0.999634,-0.014526,0.011902,0.018677,-0.1875,0.089844,0.035156,16.316014,,,
88388056000,0.999634,-0.014343,0.011841,0.018616,-0.417969,-0.148438,-0.167969,16.335557,,,
88411728000,0.999634,-0.014404,0.01178,0.018494,-0.417969,-0.070312,0.0625,16.359229,,,
88431748000,0.999634,-0.014465,0.011902,0.018433,-0.1875,-0.03125,-0.089844,16.379249,,,
88448210000,0.999634,-0.014526,0.011841,0.018433,-0.839844,0.003906,0.027344,16.395711,,,
88468536000,0.999634,-0.014404,0.011841,0.018494,-0.074219,-0.148438,-0.050781,16.416037,,,
88488542000,0.999634,-0.014343,0.011841,0.018616,-0.265625,0.121094,0.027344,16.436043,,,
88508899000,0.999634,-0.014221,0.01178,0.018677,-0.339844,0.003906,-0.011719,16.4564,,,
88533091000,0.999634,-0.01416,0.01178,0.018799,-0.109375,0.003906,0.027344,16.480592,,,
88547881000,0.999634,-0.014099,0.01178,0.01886,0.011719,-0.039062,-0.050781,16.495382,,,
88568171000,0.999634,-0.014099,0.011658,0.018921,0.011719,0.035156,-0.011719,16.515672,,,
88598283000,0.999634,-0.01416,0.011658,0.019043,0.125,-0.039062,-0.003906,16.545784,,,
88611702000,0.999634,-0.014038,0.011658,0.019165,-0.066406,-0.039062,0.070312,16.559203,,,
88627854000,0.999634,-0.014038,0.011475,0.019287,0.425781,-0.046875,0.0625,16.575355,,,
88648204000,0.999634,-0.01416,0.011414,0.019165,0.394531,-0.039062,-0.160156,16.595705,,,
88677686000,0.999634,-0.014282,0.011597,0.018982,0.585938,-0.03125,0.226562,16.625187,,,
88687684000,0.999634,-0.014221,0.011536,0.019043,0.203125,-0.1875,-0.042969,16.635185,,,
88708242000,0.999634,-0.01416,0.011719,0.018982,-0.257812,0.121094,-0.121094,16.655743,,,
88727990000,0.999695,-0.013855,0.01062,0.018555,-3.390625,0.304688,-0.160156,16.675491,,,
88747554000,0.999695,-0.013916,0.009583,0.018188,0.300781,0.074219,0.09375,16.695055,,,
88776935000,0.999695,-0.014099,0.010376,0.018066,-0.1875,-0.039062,-0.097656,16.724436,,,
88788062000,0.999695,-0.013916,0.010437,0.017944,-0.300781,0.035156,-0.058594,16.735563,,,
88807375000,0.999695,-0.014038,0.010925,0.017822,0.242188,-0.039062,0.019531,16.754876,,,
88827661000,0.999695,-0.013977,0.010864,0.017761,-0.25,-0.039062,-0.097656,16.775162,,,
88856979000,0.999695,-0.014099,0.011108,0.0177,0.019531,-0.003906,0.019531,16.80448,,,
88867818000,0.999695,-0.01416,0.011108,0.0177,-0.09375,-0.039062,0.019531,16.815319,,,
88886882000,0.999695,-0.01416,0.011108,0.0177,-0.058594,-0.003906,-0.019531,16.834383,,,
88907155000,0.999695,-0.01416,0.011108,0.0177,-0.011719,-0.003906,-0.019531,16.854656,,,
88937045000,0.999695,-0.014099,0.011047,0.0177,-0.050781,-0.003906,0.019531,16.884546,,,
88952185000,0.999695,-0.01416,0.011047,0.0177,-0.050781,-0.003906,0.019531,16.899686,,,
88966468000,0.999695,-0.014099,0.011047,0.0177,-0.085938,-0.003906,-0.019531,16.913969,,,
88986625000,0.999695,-0.014099,0.011047,0.0177,-0.050781,-0.003906,0.019531,16.934126,,,
89006943000,0.999695,-0.01416,0.011047,0.017761,-0.050781,-0.039062,0.019531,16.954444,,,
89036294000,0.999695,-0.014221,0.011108,0.017761,-0.085938,-0.003906,-0.019531,16.983795,,,
89047205000,0.999695,-0.014221,0.011108,0.017761,-0.050781,-0.039062,-0.019531,16.994706,,,
89066427000,0.999695,-0.014282,0.011108,0.0177,-0.042969,-0.003906,0.019531,17.013928,,,
89086654000,0.999695,-0.014282,0.011108,0.017761,-0.078125,0.003906,0.019531,17.034155,,,
89116761000,0.999695,-0.014282,0.011169,0.0177,-0.078125,0.003906,-0.019531,17.064262,,,
89133209000,0.999695,-0.014343,0.011169,0.0177,-0.011719,0.011719,0.019531,17.08071,,,
89146199000,0.999695,-0.014343,0.011169,0.0177,-0.046875,0.011719,0.019531,17.0937,,,
89166534000,0.999695,-0.014343,0.011169,0.0177,-0.046875,0.011719,-0.019531,17.114035,,,
89187187000,0.999695,-0.014343,0.011169,0.0177,-0.046875,0.011719,-0.019531,17.134688,,,
89211665000,0.999695,-0.014282,0.011169,0.0177,-0.003906,0.011719,0.019531,17.159166,,,
89226735000,0.999695,-0.014343,0.011169,0.0177,-0.039062,0.011719,0.019531,17.174236,,,
89246759000,0.999695,-0.014343,0.011169,0.0177,-0.039062,0.011719,-0.019531,17.19426,,,
89266238000,0.999695,-0.014343,0.011169,0.0177,-0.003906,0.003906,-0.027344,17.213739,,,
89295705000,0.999695,-0.014343,0.011169,0.0177,-0.003906,0.003906,-0.027344,17.243206,,,
89310049000,0.999695,-0.014343,0.011169,0.0177,-0.003906,0.003906,-0.027344,17.25755,,,
89325509000,0.999695,-0.014282,0.011108,0.0177,0.003906,-0.03125,0.011719,17.27301,,,
89346400000,0.999695,-0.014282,0.011108,0.0177,-0.03125,-0.03125,0.011719,17.293901,,,
89366482000,0.999695,-0.014282,0.011108,0.0177,0.003906,0.003906,-0.027344,17.313983,,,
89395635000,0.999695,-0.014282,0.011108,0.0177,-0.03125,0.003906,0.011719,17.343136,,,
89406005000,0.999695,-0.014282,0.011108,0.0177,0.003906,0.003906,0.011719,17.353506,,,
89426328000,0.999695,-0.014282,0.011108,0.0177,-0.03125,0.003906,-0.027344,17.373829,,,
89445855000,0.999695,-0.014282,0.011108,0.0177,-0.03125,0.003906,0.011719,17.393356,,,
89466610000,0.999695,-0.014282,0.011108,0.0177,0.003906,0.003906,-0.027344,17.414111,,,
89485581000,0.999695,-0.014282,0.011108,0.0177,-0.03125,0.003906,0.011719,17.433082,,,
89506783000,0.999695,-0.014343,0.011108,0.0177,0.003906,0.003906,0.011719,17.454284,,,
89529758000,0.999695,-0.014343,0.011169,0.0177,0.003906,-0.03125,-0.027344,17.477259,,,
89546134000,0.999695,-0.014404,0.011169,0.0177,0.011719,-0.03125,-0.027344,17.493635,,,
89565787000,0.999695,-0.014404,0.011169,0.0177,-0.023438,0.011719,-0.019531,17.513288,,,
89585675000,0.999695,-0.014404,0.011169,0.0177,-0.023438,0.011719,-0.019531,17.533176,,,
89615482000,0.999695,-0.014404,0.011108,0.017761,0.011719,0.011719,-0.019531,17.562983,,,
89624864000,0.999695,-0.014404,0.011108,0.017761,-0.023438,0.011719,-0.019531,17.572365,,,
89645845000,0.999695,-0.014465,0.011108,0.017761,0.011719,0.011719,-0.019531,17.593346,,,
89665624000,0.999695,-0.014465,0.011108,0.017761,-0.023438,0.011719,-0.011719,17.613125,,,
89694978000,0.999695,-0.014465,0.011108,0.0177,-0.023438,0.011719,0.027344,17.642479,,,
89705275000,0.999695,-0.014465,0.011169,0.0177,0.011719,0.011719,0.027344,17.652776,,,
89725886000,0.999695,-0.014465,0.011169,0.0177,0.003906,0.003906,-0.019531,17.673387,,,
89745403000,0.999695,-0.014465,0.011169,0.0177,0.003906,0.003906,0.019531,17.692904,,,
89765432000,0.999695,-0.014465,0.011169,0.0177,-0.03125,0.003906,0.019531,17.712933,,,
89794707000,0.999695,-0.014526,0.011108,0.0177,-0.03125,-0.03125,0.011719,17.742208,,,
89805021000,0.999695,-0.014465,0.011108,0.0177,-0.03125,0.003906,0.011719,17.752522,,,
89824975000,0.999695,-0.014465,0.011169,0.0177,0.003906,0.003906,0.011719,17.772476,,,
89854404000,0.999695,-0.014465,0.011169,0.0177,0.003906,0.003906,0.011719,17.801905,,,
89870248000,0.999695,-0.014465,0.011169,0.0177,-0.03125,0.003906,0.011719,17.817749,,,
89884831000,0.999695,-0.014465,0.011169,0.0177,-0.03125,0.003906,-0.027344,17.832332,,,
89904947000,0.999695,-0.014465,0.011169,0.0177,0.003906,0.003906,-0.027344,17.852448,,,
89924768000,0.999695,-0.014465,0.011169,0.0177,0.003906,0.003906,-0.027344,17.872269,,,
89954454000,0.999695,-0.014465,0.011169,0.0177,0.003906,0.003906,0.011719,17.901955,2.82,,6.0
89964209000,0.999695,-0.014526,0.011169,0.0177,0.003906,0.003906,0.011719,17.91171,,,
89985708000,0.999695,-0.014526,0.011169,0.0177,0.003906,0.003906,-0.027344,17.933209,,,
90013761000,0.999695,-0.014465,0.011169,0.0177,0.003906,0.003906,0.011719,17.961262,,,
90024439000,0.999695,-0.014465,0.011169,0.0177,0.003906,0.003906,0.011719,17.97194,,,
90044999000,0.999695,-0.014526,0.011169,0.0177,-0.03125,0.003906,0.011719,17.9925,,,
90065029000,0.999695,-0.014465,0.011169,0.0177,0.003906,0.003906,0.011719,18.01253,,,
90094228000,0.999695,-0.014465,0.011169,0.0177,-0.03125,0.003906,-0.027344,18.041729,,,
90104354000,0.999695,-0.014465,0.01123,0.0177,-0.023438,-0.03125,-0.027344,18.051855,,,
90124687000,0.999695,-0.014465,0.01123,0.0177,0.011719,0.003906,-0.027344,18.072188,2.84,,5.98
90145084000,0.999695,-0.014465,0.01123,0.0177,0.011719,0.003906,-0.027344,18.092585,,,
90173731000,0.999695,-0.014465,0.011169,0.0177,0.011719,-0.03125,-0.019531,18.121232,,,
90189663000,0.999695,-0.014465,0.01123,0.0177,0.003906,0.003906,0.019531,18.137164,,,
90204598000,0.999695,-0.014465,0.011169,0.0177,0.011719,0.003906,0.019531,18.152099,,,
90233309000,0.999695,-0.014526,0.011169,0.0177,-0.03125,0.003906,-0.019531,18.18081,,,
90243284000,0.999695,-0.014526,0.011169,0.0177,0.003906,-0.03125,0.019531,18.190785,,,
90264722000,0.999695,-0.014526,0.011108,0.017761,0.003906,0.003906,0.019531,18.212223,,,
90293912000,0.999695,-0.014526,0.011108,0.017761,0.003906,0.003906,0.019531,18.241413,,,
90303540000,0.999695,-0.014526,0.011108,0.017761,-0.003906,0.003906,0.019531,18.251041,,,
90324644000,0.999695,-0.014526,0.011108,0.017761,-0.003906,0.003906,0.019531,18.272145,2.81,,5.99
90345453000,0.999695,-0.014526,0.011108,0.0177,-0.003906,0.003906,0.019531,18.292954,,,
90373072000,0.999695,-0.014587,0.011108,0.017761,-0.003906,-0.03125,0.011719,18.320573,,,
90388419000,0.999695,-0.014587,0.011169,0.0177,-0.039062,-0.03125,0.011719,18.33592,,,
90405631000,0.999695,-0.014526,0.011108,0.017761,-0.003906,0.003906,0.011719,18.353132,,,
90424594000,0.999695,-0.014526,0.011108,0.017761,-0.003906,0.003906,0.011719,18.372095,,,
90444751000,0.999695,-0.014587,0.011108,0.017761,-0.003906,0.003906,0.011719,18.392252,,,
90464488000,0.999695,-0.014587,0.011169,0.0177,-0.039062,0.003906,-0.027344,18.411989,,,
90493536000,0.999695,-0.014526,0.011169,0.0177,-0.039062,0.003906,-0.027344,18.441037,,,
90503551000,0.999695,-0.014526,0.011169,0.0177,-0.039062,0.003906,0.011719,18.451052,,,
90533014000,0.999695,-0.014526,0.011169,0.017761,-0.003906,0.003906,0.011719,18.480515,2.8,,5.99
90553124000,0.999695,-0.014526,0.011169,0.0177,-0.039062,0.003906,-0.027344,18.500625,,,
90572477000,0.999695,-0.014587,0.011169,0.0177,-0.03125,0.003906,-0.027344,18.519978,,,
90583315000,0.999695,-0.014587,0.011169,0.0177,0.003906,0.003906,0.011719,18.530816,,,
90604612000,0.999695,-0.014587,0.011169,0.0177,0.003906,-0.03125,0.011719,18.552113,,,
90632326000,0.999695,-0.014587,0.011169,0.0177,0.003906,-0.03125,0.019531,18.579827,,,
90653781000,0.999695,-0.014587,0.011169,0.0177,-0.03125,0.003906,0.019531,18.601282,,,
90679170000,0.999695,-0.014648,0.011169,0.0177,0.003906,0.003906,0.019531,18.626671,,,
90692711000,0.999695,-0.014587,0.011169,0.0177,0.003906,0.003906,0.019531,18.640212,,,
90711896000,0.999695,-0.014587,0.011169,0.017761,0.003906,0.003906,-0.019531,18.659397,2.82,,6.01
90731861000,0.999695,-0.014587,0.011169,0.0177,-0.03125,-0.03125,-0.027344,18.679362,,,
90743241000,0.999695,-0.014587,0.011169,0.017761,-0.03125,0.003906,0.011719,18.690742,,,
90772053000,0.999695,-0.014587,0.01123,0.0177,0.003906,0.003906,0.011719,18.719554,,,
90792199000,0.999695,-0.014526,0.011108,0.0177,-0.109375,0.003906,0.011719,18.7397,,,
90811971000,0.999695,-0.014465,0.011108,0.0177,0.003906,0.003906,0.011719,18.759472,,,
90834437000,0.999695,-0.014587,0.011108,0.0177,0.003906,0.003906,0.046875,18.781938,,,
90851659000,0.999695,-0.014526,0.011047,0.0177,0.003906,0.003906,-0.066406,18.79916,,,
90871968000,0.999695,-0.014526,0.010986,0.0177,-0.03125,-0.03125,-0.027344,18.819469,,,
90892022000,0.999695,-0.014526,0.010986,0.0177,0.003906,0.003906,0.019531,18.839523,,,
90911675000,0.999695,-0.014465,0.010986,0.017761,-0.03125,0.003906,-0.058594,18.859176,2.83,,5.99
90935606000,0.999695,-0.014465,0.010986,0.017761,0.003906,0.003906,0.019531,18.883107,,,
90951741000,0.999695,-0.014465,0.010986,0.017761,-0.03125,0.003906,0.011719,18.899242,,,
90971885000,0.999695,-0.014465,0.010925,0.017761,0.003906,0.003906,0.011719,18.919386,,,
90991423000,0.999695,-0.014465,0.010986,0.017761,0.003906,0.003906,0.011719,18.938924,,,
91011563000,0.999695,-0.014465,0.010986,0.0177,-0.023438,0.003906,-0.027344,18.959064,,,
91031286000,0.999695,-0.014465,0.010925,0.0177,-0.023438,-0.03125,-0.027344,18.978787,,,
91051213000,0.999695,-0.014465,0.010986,0.0177,0.011719,0.003906,0.011719,18.998714,,,
91076473000,0.999695,-0.014465,0.010986,0.017761,0.011719,0.003906,0.046875,19.023974,,,
91090915000,0.999695,-0.014404,0.010864,0.0177,-0.023438,0.003906,-0.027344,19.038416,2.82,,5.98
91111808000,0.999695,-0.014404,0.010864,0.0177,0.011719,0.003906,0.011719,19.059309,,,
91131080000,0.999695,-0.014526,0.010986,0.0177,-0.0625,0.042969,0.046875,19.078581,,,
91153189000,0.999695,-0.014465,0.010925,0.0177,-0.023438,-0.03125,0.011719,19.10069,,,
91178546000,0.999695,-0.014465,0.010925,0.0177,0.011719,0.042969,0.011719,19.126047,,,
91191280000,0.999695,-0.014404,0.010925,0.0177,-0.023438,-0.03125,-0.027344,19.138781,,,
91211199000,0.999695,-0.014343,0.010925,0.0177,0.011719,0.003906,0.011719,19.1587,,,
91231236000,0.999695,-0.014343,0.010925,0.0177,0.011719,0.003906,0.011719,19.178737,,,
91251010000,0.999695,-0.014343,0.010864,0.017761,0.050781,0.003906,-0.027344,19.198511,,,
91270849000,0.999695,-0.014343,0.010925,0.017822,-0.179688,0.042969,-0.027344,19.21835,,,
91294562000,0.999695,-0.014343,0.010864,0.017761,-0.023438,-0.03125,-0.027344,19.242063,2.84,,5.98
91316561000,0.999695,-0.014404,0.010925,0.017761,0.011719,0.082031,0.046875,19.264062,,,
91330915000,0.999695,-0.014343,0.010864,0.017822,0.050781,0.003906,0.011719,19.278416,,,
91350242000,0.999695,-0.014404,0.010864,0.017822,-0.023438,0.042969,0.011719,19.297743,,,
91371180000,0.999695,-0.014343,0.010864,0.017822,0.011719,0.003906,0.011719,19.318681,,,
91395456000,0.999695,-0.014343,0.010864,0.017822,-0.023438,0.003906,0.011719,19.342957,,,
91410210000,0.999695,-0.014343,0.010864,0.017883,-0.023438,0.003906,-0.027344,19.357711,,,
91429892000,0.999695,-0.014343,0.010864,0.017883,-0.023438,0.003906,0.011719,19.377393,,,
91450434000,0.999695,-0.014343,0.010925,0.017883,-0.023438,0.003906,-0.027344,19.397935,,,
91473057000,0.999695,-0.014343,0.010925,0.017883,-0.023438,-0.003906,0.011719,19.420558,,,
91496707000,0.999695,-0.014343,0.010925,0.017883,0.011719,-0.003906,0.011719,19.444208,2.85,,6.01
91510130000,0.999695,-0.014343,0.010925,0.017883,0.011719,0.035156,0.011719,19.457631,,,
91529709000,0.999695,-0.014343,0.010925,0.017822,-0.023438,0.003906,-0.027344,19.47721,,,
91550502000,0.999695,-0.014343,0.010986,0.017883,0.011719,0.003906,0.011719,19.498003,,,
91574031000,0.999695,-0.014343,0.010986,0.017822,0.050781,-0.003906,0.011719,19.521532,,,
91589779000,0.999695,-0.014282,0.010986,0.017822,0.011719,-0.003906,-0.027344,19.53728,,,
91609482000,0.999695,-0.014343,0.010986,0.017822,0.011719,-0.003906,0.011719,19.556983,,,
91634521000,0.999695,-0.014343,0.010925,0.017822,0.011719,-0.003906,0.011719,19.582022,,,
91649623000,0.999695,-0.014343,0.010925,0.017822,0.011719,-0.003906,-0.027344,19.597124,,,
91669501000,0.999695,-0.014282,0.010925,0.017822,0.011719,-0.003906,-0.027344,19.617002,2.84,,6.0
91699778000,0.999695,-0.014343,0.010864,0.017883,0.203125,-0.039062,0.011719,19.647279,,,
91715901000,0.999695,-0.014343,0.010925,0.017883,0.011719,-0.003906,0.011719,19.663402,,,
91729156000,0.999695,-0.014343,0.010864,0.017883,-0.023438,-0.003906,-0.027344,19.676657,,,
91749433000,0.999695,-0.014343,0.010864,0.017822,0.050781,0.042969,-0.027344,19.696934,,,
91769236000,0.999695,-0.014343,0.010803,0.0177,0.011719,0.035156,-0.027344,19.716737,,,
91795585000,0.999695,-0.014343,0.010803,0.017578,-0.023438,0.003906,0.011719,19.743086,,,
91809227000,0.999695,-0.014465,0.010559,0.017334,0.074219,0.082031,0.011719,19.756728,,,
91829318000,0.999695,-0.014526,0.010254,0.01709,0.027344,-0.03125,0.019531,19.776819,,,
91849807000,0.999695,-0.014587,0.009949,0.016907,0.058594,0.003906,-0.019531,19.797308,,,
91874937000,0.999695,-0.014587,0.009644,0.016785,-0.0625,0.003906,0.019531,19.822438,2.75,,5.98
91888526000,0.999695,-0.014648,0.00946,0.016724,-0.101562,-0.03125,0.019531,19.836027,,,
91908970000,0.999695,-0.014648,0.009338,0.016663,-0.054688,-0.023438,0.019531,19.856471,,,
91929023000,0.999695,-0.014709,0.009094,0.016602,0.050781,0.003906,-0.011719,19.876524,,,
91953207000,0.999695,-0.014954,0.008606,0.016357,0.15625,0.089844,-0.019531,19.900708,,,
91968493000,0.999756,-0.014893,0.007446,0.015747,0.472656,0.136719,-0.019531,19.915994,,,
91988503000,0.999817,-0.01239,0.00592,0.015198,-0.027344,-0.570312,-0.210938,19.936004,,,
92009612000,0.999817,-0.010132,0.004883,0.014587,0.125,0.140625,-0.058594,19.957113,,,
92038596000,0.999878,-0.009033,0.003113,0.013794,1.632812,-0.496094,0.285156,19.986097,,,
92054476000,0.999878,-0.009583,0.003357,0.013916,0.8125,-0.726562,0.285156,20.001977,,,
92068220000,0.999817,-0.012451,0.003601,0.014587,-0.257812,0.074219,-0.480469,20.015721,2.85,,6.0
92088927000,0.999817,-0.012634,0.003296,0.015503,-0.289062,-0.070312,-0.367188,20.036428,,,
92109098000,0.999817,-0.009583,0.003357,0.016052,-0.136719,0.082031,0.285156,20.056599,,,
92132784000,0.999756,-0.011047,0.005127,0.01709,1.855469,0.507812,0.054688,20.080285,,,
92147976000,0.999695,-0.012207,0.007935,0.018616,0.023438,-0.410156,0.820312,20.095477,,,
92167967000,0.999695,-0.009583,0.010681,0.020325,0.242188,-0.011719,-0.25,20.115468,,,
92187985000,0.999634,-0.013245,0.011108,0.021484,-0.664062,0.894531,-1.898438,20.135486,,,
92218698000,0.999634,-0.012817,0.011658,0.021667,0.324219,0.019531,0.019531,20.166199,,,
92227570000,0.999634,-0.012634,0.011475,0.02124,-0.09375,-0.246094,-0.058594,20.175071,,,
92247828000,0.999634,-0.012207,0.011108,0.020569,-0.5625,0.097656,0.363281,20.195329,,,
92267572000,0.999634,-0.012573,0.011108,0.020325,0.28125,-0.101562,0.324219,20.215073,2.69,,6.02
92289107000,0.999634,-0.013123,0.011414,0.020081,0.234375,-0.171875,-0.175781,20.236608,,,
92314007000,0.999634,-0.012939,0.011536,0.019592,0.125,-0.203125,-0.441406,20.261508,,,
92327580000,0.999634,-0.013123,0.012146,0.019287,-0.21875,-0.019531,-0.019531,20.275081,,,
92347892000,0.999634,-0.013489,0.012329,0.018982,-0.554688,-0.238281,0.054688,20.295393,,,
92368571000,0.999634,-0.013794,0.012573,0.018677,-0.164062,-0.078125,-0.097656,20.316072,,,
92393497000,0.999634,-0.013855,0.012329,0.018494,-0.203125,-0.003906,-0.328125,20.340998,,,
92407755000,0.999695,-0.013428,0.012329,0.018188,0.179688,-0.070312,-0.441406,20.355256,,,
92427844000,0.999695,-0.013611,0.012268,0.017944,-0.242188,0.035156,0.132812,20.375345,,,
92447512000,0.999695,-0.01355,0.012207,0.017822,0.058594,-0.117188,-0.019531,20.395013,2.73,,6.01
92471825000,0.999634,-0.014771,0.012695,0.017578,0.289062,-0.003906,0.285156,20.419326,,,
92487813000,0.999695,-0.014099,0.012573,0.017273,-0.234375,-0.394531,-0.824219,20.435314,,,
92508011000,0.999695,-0.014404,0.011658,0.016724,-0.96875,0.503906,0.636719,20.455512,,,
92534064000,0.999695,-0.013611,0.010559,0.016357,0.433594,-0.214844,-0.472656,20.481565,,,
92546795000,0.999695,-0.014954,0.011292,0.016296,-0.464844,0.113281,0.59375,20.494296,,,
92567056000,0.999634,-0.016907,0.011475,0.016174,-0.449219,0.035156,0.445312,20.514557,,,
92588273000,0.999634,-0.017334,0.011719,0.016174,-0.257812,-0.101562,-0.433594,20.535774,,,
92606752000,0.999634,-0.017212,0.01178,0.015869,-0.058594,-0.125,-0.128906,20.554253,,,
92626809000,0.999634,-0.017761,0.012085,0.015686,-0.433594,0.152344,0.179688,20.57431,,,
92646593000,0.999634,-0.017639,0.012329,0.015564,-0.347656,-0.109375,-0.089844,20.594094,2.89,,6.0
92677407000,0.999695,-0.014282,0.013062,0.015442,-0.464844,-0.117188,0.675781,20.624908,,,
92686545000,0.999695,-0.014771,0.012817,0.015564,-0.109375,0.464844,0.179688,20.634046,,,
92706722000,0.999695,-0.014343,0.012634,0.015503,-0.226562,0.351562,0.601562,20.654223,,,
92726779000,0.999695,-0.014526,0.012756,0.015503,-0.148438,-0.03125,0.140625,20.67428,,,
92756426000,0.999695,-0.014709,0.012695,0.015503,-0.339844,0.011719,-0.011719,20.703927,,,
92771491000,0.999695,-0.014465,0.012634,0.015503,-0.109375,0.050781,-0.011719,20.718992,,,
92786136000,0.999695,-0.01416,0.012756,0.015442,0.082031,0.570312,0.601562,20.733637,,,
92806120000,0.999695,-0.014282,0.012878,0.015381,-0.261719,-0.003906,0.027344,20.753621,,,
92826993000,0.999695,-0.014038,0.012756,0.015259,0.121094,-0.070312,-0.050781,20.774494,,,
92851777000,0.999695,-0.014465,0.012878,0.015137,0.3125,-0.003906,0.285156,20.799278,2.92,,6.0
92865881000,0.999695,-0.014282,0.012817,0.014954,0.128906,-0.109375,-0.367188,20.813382,,,
92886232000,0.999695,-0.014404,0.012817,0.014771,0.273438,0.082031,-0.058594,20.833733,,,
92907199000,0.999695,-0.015015,0.012939,0.014526,0.15625,-0.109375,0.09375,20.8547,,,
92931668000,0.999695,-0.015564,0.013062,0.014282,-0.179688,-0.054688,0.027344,20.879169,,,
92945754000,0.999695,-0.016418,0.013123,0.014038,-0.523438,0.066406,-0.089844,20.893255,,,
92966200000,0.999695,-0.01709,0.013184,0.013794,-0.601562,-0.023438,-0.011719,20.913701,,,
92986514000,0.999695,-0.017029,0.013428,0.013672,-0.5625,-0.09375,0.027344,20.934015,,,
93015634000,0.999695,-0.016113,0.013916,0.013672,-0.808594,0.34375,0.292969,20.963135,,,
93026049000,0.999695,-0.016296,0.013733,0.013672,-0.761719,0.0,-0.777344,20.97355,,,
93045704000,0.999695,-0.016235,0.013733,0.013611,-0.003906,-0.109375,0.253906,20.993205,,,
93065819000,0.999695,-0.016235,0.013733,0.013611,-0.15625,0.074219,-0.089844,21.01332,,,
93095621000,0.999695,-0.016235,0.013733,0.01355,-0.078125,0.0,0.027344,21.043122,,,
93105737000,0.999695,-0.016296,0.013733,0.01355,-0.078125,0.0,-0.011719,21.053238,,,
93125580000,0.999695,-0.016296,0.013672,0.013489,-0.070312,-0.03125,-0.011719,21.073081,,,
93145640000,0.999695,-0.016357,0.013672,0.013428,-0.109375,0.042969,0.027344,21.093141,,,
93166156000,0.999695,-0.016479,0.013489,0.013367,-0.109375,-0.03125,-0.011719,21.113657,,,
93195705000,0.999695,-0.016541,0.013367,0.013306,-0.03125,0.007812,0.027344,21.143206,,,
93205443000,0.999695,-0.016602,0.013306,0.013306,-0.003906,-0.03125,-0.011719,21.152944,,,
93226339000,0.999695,-0.016663,0.013245,0.013306,-0.003906,-0.03125,0.027344,21.17384,,,
93245832000,0.999695,-0.016663,0.013184,0.013245,-0.003906,-0.023438,0.027344,21.193333,,,
93275220000,0.999695,-0.016541,0.013184,0.013245,-0.070312,0.007812,-0.011719,21.222721,,,
93285381000,0.999695,-0.016479,0.013184,0.013245,-0.070312,0.007812,-0.019531,21.232882,,,
93305125000,0.999695,-0.016357,0.013184,0.013245,0.003906,0.042969,0.019531,21.252626,,,
93328601000,0.999695,-0.016235,0.013123,0.013184,-0.109375,0.007812,-0.019531,21.276102,,,
93345820000,0.999695,-0.016113,0.013062,0.013184,-0.03125,0.007812,-0.019531,21.293321,,,
93374905000,0.999695,-0.015991,0.013,0.013123,0.023438,0.007812,-0.027344,21.322406,,,
93385127000,0.999695,-0.01593,0.012939,0.013123,0.089844,0.007812,0.011719,21.332628,,,
93405462000,0.999695,-0.015869,0.012939,0.013062,0.121094,0.0,0.046875,21.352963,,,
93425291000,0.999695,-0.015869,0.012939,0.013062,0.007812,0.0,-0.027344,21.372792,,,
93454594000,0.999695,-0.015808,0.012878,0.013062,0.042969,0.0,-0.027344,21.402095,,,
93465002000,0.999695,-0.015808,0.012878,0.013062,0.074219,0.0,0.011719,21.412503,,,
93485241000,0.999695,-0.015747,0.012878,0.013,0.074219,0.0,-0.027344,21.432742,,,
93505091000,0.999695,-0.015747,0.012878,0.013062,0.027344,0.0,0.011719,21.452592,,,
93534780000,0.999695,-0.015747,0.012878,0.013062,-0.007812,0.0,0.011719,21.482281,,,
93544537000,0.999695,-0.015747,0.012878,0.013062,-0.007812,0.0,0.011719,21.492038,,,
93564768000,0.999695,-0.015747,0.012878,0.013062,-0.007812,0.0,-0.027344,21.512269,,,
93584925000,0.999695,-0.015747,0.012878,0.013062,-0.046875,0.0,-0.027344,21.532426,,,
93605004000,0.999695,-0.015686,0.012878,0.013062,-0.085938,0.0,0.011719,21.552505,,,
93630189000,0.999695,-0.015625,0.012878,0.013062,-0.046875,0.0,-0.019531,21.57769,,,
93644687000,0.999695,-0.015564,0.012878,0.013,0.035156,0.0,0.019531,21.592188,,,
93664774000,0.999695,-0.015503,0.012878,0.013,0.0,0.035156,-0.019531,21.612275,,,
93695118000,0.999695,-0.015503,0.012878,0.013,0.113281,-0.007812,-0.019531,21.642619,,,
93708974000,0.999695,-0.015503,0.012878,0.013,0.027344,-0.007812,0.019531,21.656475,,,
93724673000,0.999695,-0.015503,0.012878,0.013,-0.007812,0.027344,-0.019531,21.672174,,,
93744776000,0.999695,-0.015503,0.012878,0.013,-0.007812,0.027344,0.019531,21.692277,,,
93774006000,0.999695,-0.015503,0.012878,0.013,-0.007812,-0.015625,0.019531,21.721507,,,
93784029000,0.999695,-0.015442,0.012878,0.013,-0.007812,0.019531,0.019531,21.73153,,,
93804804000,0.999695,-0.015503,0.012878,0.013,0.027344,-0.015625,0.019531,21.752305,,,
93833608000,0.999695,-0.015503,0.012878,0.012939,-0.007812,0.019531,0.019531,21.781109,,,
93843573000,0.999695,-0.015503,0.012878,0.012939,-0.007812,-0.015625,-0.019531,21.791074,,,
93864553000,0.999695,-0.015564,0.012878,0.012939,-0.007812,0.019531,-0.019531,21.812054,,,
93884401000,0.999695,-0.015564,0.012878,0.012939,-0.007812,-0.015625,0.019531,21.831902,,,
93913583000,0.999695,-0.015564,0.012878,0.012939,-0.007812,-0.007812,0.019531,21.861084,,,
93923657000,0.999695,-0.015564,0.012878,0.012939,-0.007812,-0.007812,0.019531,21.871158,,,
93944462000,0.999695,-0.015503,0.012878,0.012878,0.027344,-0.007812,-0.019531,21.891963,,,
93964365000,0.999695,-0.015503,0.012878,0.012939,-0.015625,0.019531,-0.019531,21.911866,,,
93984370000,0.999695,-0.015503,0.012878,0.012939,-0.015625,0.019531,-0.019531,21.931871,,,
94013096000,0.999695,-0.015503,0.012878,0.012878,-0.007812,-0.015625,0.027344,21.960597,,,
94023148000,0.999695,-0.015503,0.012878,0.012878,-0.007812,-0.015625,0.027344,21.970649,,,
94054339000,0.999695,-0.015503,0.012878,0.012817,-0.007812,-0.015625,0.027344,22.00184,,,
94063536000,0.999695,-0.015503,0.012878,0.012817,-0.046875,0.019531,0.027344,22.011037,,,
94092932000,0.999695,-0.015442,0.012878,0.012817,-0.007812,-0.015625,0.019531,22.040433,,,
94103202000,0.999695,-0.015442,0.012878,0.012756,-0.039062,0.019531,-0.019531,22.050703,,,
94124411000,0.999695,-0.015442,0.012817,0.012756,0.0,-0.015625,-0.019531,22.071912,,,
94145954000,0.999695,-0.015381,0.012817,0.012756,0.113281,-0.015625,0.027344,22.093455,,,
94173144000,0.999695,-0.015381,0.012817,0.012756,-0.007812,-0.015625,-0.011719,22.120645,,,
94183164000,0.999695,-0.015381,0.012817,0.012756,-0.007812,-0.015625,0.027344,22.130665,,,
94204394000,0.999695,-0.015381,0.012817,0.012756,0.027344,0.019531,-0.011719,22.151895,,,
94224428000,0.999695,-0.015381,0.012817,0.012756,-0.007812,0.019531,0.027344,22.171929,,,
94253216000,0.999695,-0.015381,0.012817,0.012756,-0.007812,-0.015625,0.027344,22.200717,,,
94263168000,0.999695,-0.015381,0.012817,0.012756,-0.007812,-0.015625,0.027344,22.210669,,,
94295261000,0.999695,-0.015381,0.012817,0.012756,-0.007812,0.019531,-0.011719,22.242762,,,
94303199000,0.999695,-0.01532,0.012817,0.012756,0.027344,0.019531,0.027344,22.2507,,,
94332285000,0.999695,-0.015381,0.012817,0.012756,-0.007812,-0.015625,0.027344,22.279786,,,
94352007000,0.999695,-0.01532,0.012817,0.012756,-0.007812,0.019531,0.027344,22.299508,,,
94372303000,0.999695,-0.015381,0.012817,0.012756,-0.007812,0.019531,-0.011719,22.319804,,,
94393479000,0.999695,-0.01532,0.012817,0.012756,-0.007812,0.019531,0.027344,22.34098,,,
94413086000,0.999695,-0.01532,0.012817,0.012756,-0.007812,0.019531,-0.011719,22.360587,,,
94432253000,0.999695,-0.01532,0.012817,0.012756,-0.007812,-0.015625,-0.011719,22.379754,,,
94453193000,0.999695,-0.015381,0.012817,0.012756,-0.007812,0.019531,0.027344,22.400694,,,
94472222000,0.999695,-0.015381,0.012817,0.012756,-0.007812,0.019531,-0.011719,22.419723,,,
94495542000,0.999695,-0.015381,0.012817,0.012695,-0.007812,-0.015625,-0.011719,22.443043,,,
94512043000,0.999695,-0.015381,0.012817,0.012695,-0.007812,0.019531,-0.011719,22.459544,,,
94531946000,0.999695,-0.015442,0.012817,0.012695,-0.007812,0.011719,-0.011719,22.479447,,,
94551469000,0.999695,-0.015442,0.012817,0.012695,-0.007812,0.011719,-0.011719,22.49897,,,
94572956000,0.999695,-0.015442,0.012878,0.012695,-0.007812,0.011719,-0.011719,22.520457,,,
94596476000,0.999695,-0.015442,0.012878,0.012695,-0.007812,0.011719,0.027344,22.543977,,,
94603310000,0.999695,-0.015442,0.012878,0.012695,-0.007812,0.011719,0.027344,22.550811,,,
94631422000,0.999695,-0.015442,0.012878,0.012695,-0.007812,0.011719,-0.011719,22.578923,,,
94653249000,0.999695,-0.015442,0.012878,0.012695,-0.007812,0.011719,-0.011719,22.60075,,,
94671904000,0.999695,-0.015442,0.012878,0.012634,0.027344,0.011719,-0.011719,22.619405,,,
94691288000,0.999695,-0.015442,0.012878,0.012634,-0.007812,-0.023438,0.027344,22.638789,,,
94711230000,0.999695,-0.015442,0.012817,0.012634,-0.007812,0.011719,0.027344,22.658731,,,
94731022000,0.999695,-0.015442,0.012817,0.012634,-0.007812,0.011719,0.027344,22.678523,,,
94751599000,0.999695,-0.015442,0.012817,0.012634,-0.007812,-0.023438,0.027344,22.6991,,,
94770976000,0.999695,-0.015442,0.012817,0.012634,-0.007812,-0.023438,-0.050781,22.718477,,,
94791322000,0.999695,-0.015442,0.012817,0.012634,-0.007812,0.011719,-0.050781,22.738823,,,
94814829000,0.999695,-0.015442,0.012817,0.012634,0.0,0.011719,-0.011719,22.76233,,,
94831171000,0.999695,-0.015442,0.012817,0.012634,0.0,0.011719,0.027344,22.778672,,,
94850948000,0.999695,-0.015442,0.012756,0.012634,0.035156,0.011719,0.027344,22.798449,,,
94871161000,0.999695,-0.015503,0.012756,0.012634,0.0,-0.023438,-0.011719,22.818662,,,
94896673000,0.999695,-0.015503,0.012817,0.012634,0.035156,-0.023438,0.027344,22.844174,,,
94911233000,0.999695,-0.015503,0.012756,0.012634,0.0,-0.023438,0.027344,22.858734,,,
94930679000,0.999695,-0.015503,0.012756,0.012634,0.0,-0.023438,-0.011719,22.87818,,,
94950338000,0.999695,-0.015503,0.012756,0.012634,0.0,-0.023438,0.027344,22.897839,,,
94971396000,0.999695,-0.015503,0.012756,0.012634,0.0,-0.023438,-0.011719,22.918897,,,
94995170000,0.999695,-0.015503,0.012756,0.012634,0.0,-0.023438,0.027344,22.942671,,,
95010787000,0.999695,-0.015503,0.012756,0.012634,0.0,0.011719,0.027344,22.958288,,,
95035650000,0.999695,-0.015503,0.012756,0.012634,0.0,0.011719,0.027344,22.983151,,,
95051243000,0.999695,-0.015503,0.012756,0.012634,0.0,0.011719,-0.011719,22.998744,,,
95070656000,0.999695,-0.015503,0.012756,0.012634,0.0,0.011719,-0.011719,23.018157,,,
95090908000,0.999695,-0.015503,0.012756,0.012634,0.035156,0.011719,-0.011719,23.038409,,,
95112926000,0.999695,-0.015503,0.012756,0.012573,0.0,-0.023438,0.027344,23.060427,,,
95130789000,0.999695,-0.015503,0.012756,0.012573,0.027344,0.011719,-0.011719,23.07829,,,
95150237000,0.999695,-0.015503,0.012756,0.012573,-0.007812,-0.023438,0.027344,23.097738,,,
95169957000,0.999695,-0.015442,0.012756,0.012634,-0.007812,0.011719,-0.011719,23.117458,,,
95192128000,0.999695,-0.015442,0.012756,0.012634,-0.007812,-0.023438,0.027344,23.139629,,,
95210335000,0.999695,-0.015381,0.012756,0.012634,0.027344,-0.023438,-0.011719,23.157836,,,
95229753000,0.999695,-0.015381,0.012756,0.012634,-0.007812,0.011719,-0.011719,23.177254,,,
95249757000,0.999695,-0.015381,0.012695,0.012634,-0.007812,0.011719,0.027344,23.197258,,,
95272890000,0.999695,-0.01532,0.012634,0.012695,0.210938,0.011719,-0.050781,23.220391,,,
95293171000,0.999695,-0.015381,0.012573,0.012695,0.128906,-0.023438,0.027344,23.240672,,,
95310129000,0.999695,-0.015564,0.012573,0.012695,0.464844,0.011719,0.027344,23.25763,,,
95329987000,0.999695,-0.01593,0.012695,0.012695,0.105469,0.058594,0.027344,23.277488,,,
95350589000,0.999695,-0.016113,0.012756,0.012695,-0.011719,-0.046875,0.027344,23.29809,,,
95374680000,0.999695,-0.016479,0.012878,0.012756,0.320312,-0.039062,0.0625,23.322181,,,
95389862000,0.999695,-0.016785,0.013184,0.012817,-0.109375,-0.03125,-0.050781,23.337363,,,
95409773000,0.999695,-0.016846,0.013428,0.012939,0.347656,-0.03125,0.09375,23.357274,,,
95429904000,0.999695,-0.017578,0.013733,0.013123,0.679688,0.058594,-0.019531,23.377405,,,
95451544000,0.999695,-0.01593,0.015076,0.013184,0.066406,-0.199219,0.054688,23.399045,,,
95473416000,0.999695,-0.01593,0.014709,0.013367,-0.035156,0.3125,-0.941406,23.420917,,,
95489157000,0.999695,-0.01593,0.014526,0.013672,-0.125,0.273438,-0.097656,23.436658,,,
95509262000,0.999695,-0.015808,0.014343,0.013977,0.058594,-0.109375,0.476562,23.456763,,,
95534545000,0.999695,-0.015564,0.014221,0.014221,-0.066406,0.199219,-0.019531,23.482046,,,
95548946000,0.999634,-0.015503,0.015137,0.014282,0.125,-0.078125,-0.097656,23.496447,,,
95569091000,0.999634,-0.01532,0.016235,0.014404,0.539062,-0.039062,-0.210938,23.516592,,,
95588828000,0.999573,-0.01593,0.018738,0.013977,2.050781,0.734375,-0.558594,23.536329,,,
95611496000,0.999573,-0.014709,0.020386,0.014709,-0.148438,-1.027344,-0.933594,23.558997,,,
95628821000,0.999573,-0.012573,0.022522,0.015625,-0.738281,-0.308594,1.289062,23.576322,,,
95649135000,0.999451,-0.015076,0.022766,0.019409,2.40625,-2.0625,-2.351562,23.596636,,,
95668661000,0.999512,-0.015259,0.021912,0.015442,1.09375,-0.164062,1.058594,23.616162,,,
95689369000,0.999573,-0.015686,0.021729,0.013367,0.066406,-0.921875,1.902344,23.63687,,,
95714502000,0.999573,-0.016418,0.021118,0.013184,-0.773438,0.242188,0.179688,23.662003,,,
95728556000,0.999573,-0.017029,0.020569,0.013062,-0.183594,0.183594,0.148438,23.676057,,,
95748831000,0.999634,-0.015259,0.018005,0.010864,-0.652344,1.570312,-1.0,23.696332,,,
95774139000,0.999756,-0.013428,0.016113,0.009521,-1.652344,-1.128906,4.667969,23.72164,,,
95788950000,0.999695,-0.014709,0.015869,0.00946,0.171875,-0.96875,2.253906,23.736451,,,
95808559000,0.999695,-0.015015,0.015686,0.010254,-1.136719,0.535156,2.0625,23.75606,,,
95828757000,0.999695,-0.014954,0.015015,0.01123,0.242188,-0.039062,-0.925781,23.776258,,,
95848614000,0.999695,-0.014587,0.014648,0.012146,0.082031,0.035156,-0.726562,23.796115,,,
95872810000,0.999695,-0.014404,0.014465,0.012878,-0.242188,-0.109375,0.195312,23.820311,,,
95887810000,0.999695,-0.01416,0.013977,0.012512,-0.585938,0.765625,-0.152344,23.835311,,,
95907963000,0.999756,-0.014404,0.013672,0.011902,-0.519531,0.265625,-0.113281,23.855464,,,
95928316000,0.999756,-0.014404,0.013245,0.011475,-0.371094,-0.117188,0.003906,23.875817,,,
95948731000,0.999756,-0.014282,0.012756,0.010986,-0.105469,-0.078125,-0.113281,23.896232,,,
95972963000,0.999756,-0.014282,0.012573,0.010498,-0.121094,0.042969,-0.074219,23.920464,,,
95989224000,0.999756,-0.014526,0.012085,0.009949,-0.347656,0.160156,-0.035156,23.936725,,,
96007897000,0.999756,-0.014771,0.011902,0.009521,-0.433594,0.082031,0.117188,23.955398,,,
96028611000,0.999817,-0.014587,0.011597,0.008972,-0.355469,0.089844,0.234375,23.976112,,,
96052278000,0.999817,-0.014648,0.011597,0.008545,-0.210938,0.160156,0.425781,23.999779,,,
96068069000,0.999756,-0.015747,0.011902,0.007874,-0.703125,0.519531,0.691406,24.01557,,,
96088042000,0.999756,-0.016052,0.012451,0.006897,0.1875,0.121094,0.234375,24.035543,,,
96107951000,0.999756,-0.016357,0.012451,0.005737,-0.332031,0.007812,-0.34375,24.055452,,,
96137922000,0.999756,-0.016235,0.012085,0.005005,-0.609375,-0.136719,0.042969,24.085423,,,
96147277000,0.999756,-0.016296,0.012024,0.005005,-0.378906,-0.070312,0.117188,24.094778,,,
96167814000,0.999756,-0.016235,0.011841,0.005188,-0.339844,-0.023438,0.042969,24.115315,,,
96187041000,0.999756,-0.016357,0.011658,0.005371,0.078125,0.082031,-0.027344,24.134542,,,
96208184000,0.999756,-0.016296,0.011597,0.005371,0.070312,0.007812,0.011719,24.155685,,,
96232046000,0.999817,-0.016235,0.011414,0.005249,-0.003906,0.082031,-0.027344,24.179547,,,
96247494000,0.999817,-0.016174,0.010803,0.005127,0.179688,0.046875,-0.066406,24.194995,,,
96267033000,0.999817,-0.015625,0.010498,0.005127,-0.328125,-0.0625,0.316406,24.214534,,,
96287766000,0.999817,-0.015442,0.010193,0.005127,-0.128906,0.191406,-0.027344,24.235267,,,
96312804000,0.999817,-0.015015,0.01001,0.00531,-0.289062,-0.007812,0.085938,24.260305,,,
96326885000,0.999817,-0.014832,0.01001,0.005432,-0.363281,0.136719,0.125,24.274386,,,
96346611000,0.999817,-0.014954,0.009949,0.00531,-0.824219,0.214844,0.050781,24.294112,,,
96367038000,0.999817,-0.014893,0.009949,0.005188,-0.75,-0.015625,-0.027344,24.314539,,,
96386891000,0.999817,-0.014954,0.009888,0.005188,-0.136719,-0.015625,-0.027344,24.334392,,,
96406809000,0.999817,-0.014893,0.009888,0.005188,-0.171875,0.023438,0.011719,24.35431,,,
96426646000,0.999817,-0.014893,0.009949,0.005188,-0.136719,0.058594,0.050781,24.374147,,,
96447033000,0.999817,-0.014893,0.009949,0.005188,-0.128906,0.023438,0.011719,24.394534,,,
96466241000,0.999817,-0.014893,0.009949,0.005188,-0.128906,0.058594,0.050781,24.413742,,,
96496205000,0.999817,-0.014832,0.009949,0.005188,-0.164062,0.058594,0.011719,24.443706,,,
96511383000,0.999817,-0.014832,0.009888,0.005249,-0.128906,0.058594,0.011719,24.458884,,,
96525987000,0.999817,-0.014771,0.009888,0.005249,-0.128906,0.023438,0.050781,24.473488,,,
96546057000,0.999817,-0.014771,0.009888,0.005249,-0.164062,0.058594,0.050781,24.493558,,,
96566341000,0.999817,-0.014771,0.009888,0.005249,-0.121094,0.058594,0.050781,24.513842,,,
96587244000,0.999817,-0.014771,0.009888,0.005249,-0.121094,0.058594,0.011719,24.534745,,,
96611414000,0.999817,-0.014771,0.009888,0.005249,-0.164062,0.023438,0.050781,24.558915,,,
96626554000,0.999817,-0.014771,0.009888,0.005249,-0.164062,0.058594,0.011719,24.574055,,,
96645940000,0.999817,-0.014771,0.009888,0.005249,-0.128906,0.023438,0.050781,24.593441,,,
96666385000,0.999817,-0.014771,0.009888,0.005188,-0.128906,0.058594,0.050781,24.613886,,,
96690860000,0.999817,-0.014771,0.009888,0.005249,-0.121094,0.058594,0.050781,24.638361,,,
96706986000,0.999817,-0.014771,0.009949,0.005188,-0.113281,0.058594,0.011719,24.654487,,,
96726222000,0.999817,-0.014771,0.009949,0.005188,-0.023438,0.011719,0.027344,24.673723,,,
96745881000,0.999817,-0.014771,0.009949,0.005249,0.011719,-0.023438,-0.011719,24.693382,,,
96776358000,0.999817,-0.014771,0.01001,0.005188,-0.023438,0.011719,0.027344,24.723859,,,
96789728000,0.999817,-0.014832,0.01001,0.005188,0.011719,0.011719,0.027344,24.737229,,,
96807177000,0.999817,-0.014832,0.01001,0.005188,-0.023438,0.011719,-0.011719,24.754678,,,
96825173000,0.999817,-0.014832,0.010071,0.005188,-0.023438,0.011719,-0.011719,24.772674,,,
96846109000,0.999817,-0.014954,0.010132,0.005127,-0.246094,0.050781,-0.011719,24.79361,,,
96865903000,0.999817,-0.014832,0.010193,0.005005,-0.238281,0.003906,-0.050781,24.813404,,,
96888040000,0.999817,-0.014771,0.010193,0.004822,-0.199219,0.003906,0.027344,24.835541,,,
96905631000,0.999817,-0.014771,0.010193,0.004639,0.121094,0.042969,-0.011719,24.853132,,,
96926126000,0.999817,-0.014771,0.010193,0.004517,0.082031,-0.003906,-0.011719,24.873627,,,
96945591000,0.999817,-0.014709,0.010193,0.004395,0.121094,-0.070312,-0.011719,24.893092,,,
96975005000,0.999817,-0.014771,0.010193,0.004333,0.082031,-0.03125,-0.011719,24.922506,,,
96985287000,0.999817,-0.014771,0.010193,0.004272,0.007812,0.003906,0.027344,24.932788,,,
97006209000,0.999817,-0.014832,0.010193,0.004211,0.0,0.003906,-0.011719,24.95371,,,
97035230000,0.999817,-0.014893,0.010193,0.004211,0.113281,-0.03125,-0.011719,24.982731,,,
97045665000,0.999817,-0.014893,0.010193,0.004211,-0.007812,0.011719,0.027344,24.993166,,,
97065305000,0.999817,-0.014893,0.010132,0.004211,-0.007812,0.011719,0.027344,25.012806,,,
97085323000,0.999817,-0.014832,0.010132,0.004211,0.027344,-0.023438,0.027344,25.032824,,,
97106353000,0.999817,-0.014832,0.010193,0.00415,-0.007812,0.011719,-0.011719,25.053854,,,
97131309000,0.999817,-0.014832,0.010132,0.00415,0.019531,-0.023438,0.027344,25.07881,,,
97145463000,0.999817,-0.014832,0.010132,0.00415,-0.015625,0.011719,-0.011719,25.092964,,,
97165489000,0.999817,-0.014832,0.010132,0.00415,0.019531,-0.023438,0.027344,25.11299,,,
97185328000,0.999817,-0.014832,0.010071,0.00415,0.019531,0.011719,-0.011719,25.132829,,,
97216791000,0.999817,-0.014832,0.010071,0.00415,0.019531,-0.023438,0.027344,25.164292,,,
97225128000,0.999817,-0.014771,0.010071,0.00415,-0.015625,0.011719,0.027344,25.172629,,,
97245047000,0.999817,-0.014771,0.010071,0.004211,-0.015625,0.011719,0.027344,25.192548,,,
97265103000,0.999817,-0.014771,0.010071,0.004211,0.019531,0.011719,-0.011719,25.212604,,,
97294985000,0.999817,-0.014771,0.010071,0.00415,0.019531,0.011719,-0.011719,25.242486,,,
97305029000,0.999817,-0.014771,0.010071,0.00415,-0.015625,-0.023438,0.027344,25.25253,,,
97324850000,0.999817,-0.014771,0.01001,0.00415,0.019531,0.011719,0.027344,25.272351,,,
97344843000,0.999817,-0.014771,0.01001,0.004211,0.019531,0.011719,-0.011719,25.292344,,,
97365164000,0.999817,-0.014709,0.01001,0.004211,0.019531,0.011719,0.027344,25.312665,,,
97389166000,0.999817,-0.014709,0.01001,0.004211,0.011719,0.003906,-0.011719,25.336667,,,
97404531000,0.999817,-0.014771,0.01001,0.004211,0.011719,0.003906,-0.011719,25.352032,,,
97424769000,0.999817,-0.014709,0.01001,0.004211,-0.023438,0.003906,-0.011719,25.37227,,,
97444755000,0.999817,-0.014709,0.010071,0.004211,-0.023438,0.003906,-0.011719,25.392256,,,
97474386000,0.999817,-0.014709,0.010071,0.004211,0.011719,0.003906,0.027344,25.421887,,,
97488942000,0.999817,-0.014709,0.010071,0.004211,-0.023438,0.003906,-0.011719,25.436443,,,
97504613000,0.999817,-0.014709,0.010071,0.004211,0.011719,-0.03125,-0.011719,25.452114,,,
97538037000,0.999817,-0.014709,0.010071,0.004211,0.011719,0.011719,-0.011719,25.485538,,,
97543580000,0.999817,-0.014709,0.010071,0.004211,-0.023438,0.003906,-0.003906,25.491081,,,
97565248000,0.999817,-0.014648,0.010071,0.00415,-0.023438,0.003906,0.035156,25.512749,,,
97593272000,0.999817,-0.014648,0.010071,0.00415,0.011719,0.003906,0.035156,25.540773,,,
97613193000,0.999817,-0.014648,0.010132,0.00415,-0.023438,-0.003906,0.035156,25.560694,,,
97623477000,0.999817,-0.014709,0.010132,0.00415,-0.023438,-0.003906,0.035156,25.570978,,,
97644854000,0.999817,-0.014709,0.010132,0.00415,0.011719,-0.003906,0.035156,25.592355,,,
97664389000,0.999817,-0.014648,0.010132,0.00415,0.011719,-0.003906,-0.003906,25.61189,,,
97684774000,0.999817,-0.014709,0.010132,0.00415,-0.023438,-0.03125,-0.003906,25.632275,,,
97704699000,0.999817,-0.014648,0.010132,0.00415,0.011719,-0.03125,0.035156,25.6522,,,
97730223000,0.999817,-0.014709,0.010132,0.00415,0.011719,0.003906,0.035156,25.677724,,,
97744263000,0.999817,-0.014648,0.010071,0.00415,0.011719,0.003906,0.035156,25.691764,,,
97773620000,0.999817,-0.014648,0.010071,0.00415,-0.023438,0.011719,0.027344,25.721121,,,
97783184000,0.999817,-0.014648,0.010071,0.004211,0.011719,0.011719,-0.011719,25.730685,,,
97804338000,0.999817,-0.014648,0.010071,0.004211,-0.023438,0.011719,0.027344,25.751839,,,
97824499000,0.999817,-0.014709,0.010071,0.004211,0.011719,0.011719,-0.011719,25.772,,,
97844486000,0.999817,-0.014709,0.010071,0.004211,-0.023438,0.011719,-0.011719,25.791987,,,
97873415000,0.999817,-0.014709,0.010071,0.004211,-0.023438,-0.03125,0.027344,25.820916,,,
97887986000,0.999817,-0.014709,0.010071,0.004211,-0.023438,0.003906,0.027344,25.835487,,,
97904134000,0.999817,-0.014648,0.010071,0.004272,0.011719,0.003906,0.027344,25.851635,,,
97935884000,0.999817,-0.014648,0.010071,0.004272,0.011719,0.003906,0.027344,25.883385,,,
97944079000,0.999817,-0.014648,0.010071,0.004272,-0.023438,0.003906,-0.011719,25.89158,,,
97968709000,0.999817,-0.014648,0.010071,0.004211,-0.023438,0.003906,-0.011719,25.91621,,,
97984121000,0.999817,-0.014648,0.010071,0.004211,0.011719,0.003906,-0.011719,25.931622,,,
98012981000,0.999817,-0.014648,0.010071,0.004211,0.011719,-0.003906,0.035156,25.960482,,,
98031881000,0.999817,-0.014587,0.01001,0.004272,0.011719,-0.003906,0.035156,25.979382,,,
98052373000,0.999817,-0.014587,0.01001,0.004272,-0.023438,-0.003906,0.035156,25.999874,,,
98076888000,0.999817,-0.014587,0.01001,0.004272,-0.023438,-0.003906,0.027344,26.024389,,,
98083350000,0.999817,-0.014587,0.01001,0.004272,-0.023438,-0.003906,0.027344,26.030851,,,
98111874000,0.999817,-0.014526,0.01001,0.004272,0.011719,-0.003906,0.027344,26.059375,2.83,6.19,6.03
98123238000,0.999817,-0.014526,0.01001,0.004272,-0.023438,-0.003906,0.027344,26.070739,,,
98152396000,0.999817,-0.014526,0.01001,0.004272,-0.023438,-0.003906,0.027344,26.099897,,,
98171951000,0.999817,-0.014526,0.01001,0.004272,-0.015625,-0.003906,-0.011719,26.119452,,,
98191953000,0.999817,-0.014465,0.01001,0.004272,-0.015625,-0.003906,0.027344,26.139454,,,
98203309000,0.999817,-0.014526,0.01001,0.004272,0.019531,-0.039062,0.027344,26.15081,,,
98231688000,0.999817,-0.014465,0.01001,0.004272,-0.015625,0.003906,0.027344,26.179189,,,
98251378000,0.999817,-0.014465,0.01001,0.004272,0.019531,0.003906,-0.011719,26.198879,,,
98272350000,0.999817,-0.014465,0.01001,0.004272,0.019531,0.003906,0.027344,26.219851,,,
98283146000,0.999817,-0.014465,0.01001,0.004272,-0.015625,0.003906,0.027344,26.230647,,,
98317268000,0.999817,-0.014465,0.01001,0.004333,0.019531,0.003906,-0.011719,26.264769,2.86,6.14,6.03
98332347000,0.999817,-0.014465,0.01001,0.004333,-0.015625,0.003906,0.027344,26.279848,,,
98351632000,0.999817,-0.014465,0.01001,0.004333,-0.015625,-0.03125,0.027344,26.299133,,,
98371190000,0.999817,-0.014465,0.01001,0.004333,-0.015625,0.003906,-0.011719,26.318691,,,
98396260000,0.999817,-0.014465,0.01001,0.004272,0.019531,0.003906,-0.011719,26.343761,,,
98411587000,0.999817,-0.014465,0.01001,0.004272,0.019531,0.003906,0.027344,26.359088,,,
98431361000,0.999817,-0.014465,0.01001,0.004333,0.019531,0.003906,-0.011719,26.378862,,,
98450973000,0.999817,-0.014465,0.01001,0.004333,-0.015625,0.003906,0.027344,26.398474,,,
98471178000,0.999817,-0.014465,0.01001,0.004333,-0.015625,0.003906,-0.011719,26.418679,,,
98490907000,0.999817,-0.014465,0.01001,0.004333,-0.015625,0.003906,-0.011719,26.438408,,,
98514263000,0.999817,-0.014465,0.01001,0.004333,0.019531,0.003906,0.027344,26.461764,2.84,6.13,6.02
98530622000,0.999817,-0.014465,0.01001,0.004333,-0.015625,0.003906,0.027344,26.478123,,,
98561023000,0.999817,-0.014465,0.01001,0.004333,-0.015625,0.003906,0.027344,26.508524,,,
98574773000,0.999817,-0.014465,0.01001,0.004333,-0.015625,-0.03125,0.027344,26.522274,,,
98597612000,0.999817,-0.014465,0.01001,0.004333,0.019531,0.003906,-0.011719,26.545113,,,
98610662000,0.999817,-0.014465,0.01001,0.004333,-0.015625,0.003906,-0.003906,26.558163,,,
98630378000,0.999817,-0.014465,0.01001,0.004333,-0.015625,0.003906,0.035156,26.577879,,,
98658212000,0.999817,-0.014465,0.01001,0.004333,0.019531,0.003906,-0.003906,26.605713,,,
98670171000,0.999817,-0.014465,0.01001,0.004333,0.019531,0.003906,0.035156,26.617672,,,
98690368000,0.999817,-0.014465,0.01001,0.004333,0.019531,0.003906,0.035156,26.637869,,,
98714027000,0.999817,-0.014465,0.01001,0.004333,-0.015625,0.003906,0.035156,26.661528,2.83,6.09,6.04
98730383000,0.999817,-0.014465,0.01001,0.004333,0.058594,0.003906,0.035156,26.677884,,,
98750732000,0.999817,-0.014282,0.01001,0.004395,0.585938,0.042969,0.109375,26.698233,,,
98770160000,0.999817,-0.014526,0.010132,0.004456,-0.148438,0.042969,0.027344,26.717661,,,
98801133000,0.999817,-0.014404,0.010071,0.004395,0.121094,0.121094,0.027344,26.748634,,,
98815296000,0.999817,-0.014526,0.010132,0.004333,0.273438,0.003906,-0.011719,26.762797,,,
98829690000,0.999817,-0.014587,0.010132,0.004211,-0.222656,-0.039062,-0.011719,26.777191,,,
98849646000,0.999817,-0.014648,0.010071,0.004211,0.003906,-0.078125,0.027344,26.797147,,,
98871963000,0.999817,-0.014587,0.010071,0.004211,0.042969,-0.039062,0.027344,26.819464,,,
