timestamp_ns,qw,qx,qy,qz,ax,ay,az
2573489000,0.999146,-0.033142,0.025574,-0.000854,0.003906,-0.003906,0.011719
2594286000,0.999146,-0.033081,0.025574,-0.000854,0.039062,-0.003906,-0.027344
2603194000,0.999146,-0.033081,0.025635,-0.000854,0.003906,-0.003906,-0.027344
2613582000,0.999146,-0.033081,0.025635,-0.000854,0.003906,-0.003906,0.011719
2623942000,0.999146,-0.033081,0.025635,-0.000854,-0.035156,-0.003906,-0.027344
2635356000,0.999146,-0.033081,0.025635,-0.000854,0.003906,-0.003906,-0.027344
2643642000,0.999146,-0.033081,0.025635,-0.000854,0.003906,-0.003906,-0.027344
2653648000,0.999146,-0.033081,0.025635,-0.000854,0.003906,-0.003906,-0.027344
2663728000,0.999146,-0.033081,0.025635,-0.000854,0.003906,-0.003906,-0.019531
2673774000,0.999146,-0.033081,0.025635,-0.000854,0.003906,-0.003906,-0.019531
2683224000,0.999146,-0.033020,0.025635,-0.000916,0.003906,-0.003906,0.019531
2693774000,0.999146,-0.033081,0.025635,-0.000916,0.003906,-0.003906,-0.019531
2704050000,0.999146,-0.033081,0.025635,-0.000916,0.003906,-0.003906,-0.019531
2722784000,0.999146,-0.033020,0.025635,-0.000916,0.003906,0.035156,0.019531
2743453000,0.999146,-0.033020,0.025635,-0.000916,0.003906,-0.003906,-0.019531
2763187000,0.999146,-0.033020,0.025635,-0.000916,0.003906,-0.003906,-0.011719
2783458000,0.999146,-0.033081,0.025635,-0.000916,0.003906,-0.003906,-0.011719
2802721000,0.999146,-0.033081,0.025635,-0.000916,0.003906,-0.003906,-0.011719
2828098000,0.999146,-0.033081,0.025635,-0.000916,0.003906,0.035156,0.027344
2842957000,0.999146,-0.033081,0.025635,-0.000916,0.003906,-0.003906,0.027344
2862800000,0.999146,-0.033081,0.025635,-0.000916,-0.035156,-0.003906,0.027344
2883278000,0.999146,-0.033081,0.025635,-0.000916,0.003906,-0.003906,-0.011719
2907006000,0.999146,-0.033081,0.025635,-0.000916,0.003906,-0.003906,0.027344
2923118000,0.999146,-0.033142,0.025635,-0.000916,0.003906,-0.003906,-0.011719
2942937000,0.999146,-0.033142,0.025635,-0.000916,0.003906,-0.003906,-0.011719
2963342000,0.999146,-0.033142,0.025574,-0.000916,0.039062,-0.003906,0.027344
2982592000,0.999146,-0.033142,0.025574,-0.000916,0.003906,-0.003906,-0.011719
3003121000,0.999146,-0.033142,0.025574,-0.000916,0.003906,-0.003906,0.027344
3022609000,0.999146,-0.033142,0.025635,-0.000916,0.003906,-0.003906,-0.011719
3042266000,0.999146,-0.033142,0.025574,-0.000916,0.003906,-0.003906,0.027344
3064302000,0.999146,-0.033081,0.025574,-0.000916,0.003906,-0.003906,-0.011719
3082811000,0.999146,-0.033142,0.025635,-0.000916,0.003906,-0.003906,-0.011719
3102039000,0.999146,-0.033142,0.025635,-0.000916,0.003906,0.035156,-0.011719
3122036000,0.999146,-0.033142,0.025635,-0.000916,0.003906,-0.003906,0.027344
3142005000,0.999146,-0.033142,0.025635,-0.000916,-0.035156,-0.003906,0.027344
3162298000,0.999146,-0.033142,0.025635,-0.000916,0.003906,0.035156,0.027344
3187554000,0.999146,-0.033142,0.025635,-0.000916,0.003906,-0.003906,0.027344
3204569000,0.999146,-0.033142,0.025635,-0.000916,0.003906,-0.003906,-0.011719
3225344000,0.999146,-0.033142,0.025574,-0.000916,0.003906,0.035156,0.027344
3241933000,0.999146,-0.033142,0.025574,-0.000916,0.003906,-0.003906,0.027344
3262329000,0.999146,-0.033142,0.025574,-0.000916,0.003906,-0.003906,-0.011719
3285012000,0.999146,-0.033142,0.025635,-0.000916,0.003906,-0.003906,0.027344
3302155000,0.999146,-0.033142,0.025635,-0.000916,0.003906,-0.003906,-0.011719
3321822000,0.999146,-0.033203,0.025635,-0.000916,0.003906,-0.003906,0.027344
3347380000,0.999146,-0.033203,0.025635,-0.000916,0.003906,-0.003906,0.027344
3361590000,0.999146,-0.033142,0.025635,-0.000916,0.003906,-0.003906,-0.011719
3381603000,0.999146,-0.033142,0.025635,-0.000916,-0.035156,-0.003906,0.027344
3403014000,0.999146,-0.033142,0.025635,-0.000916,0.003906,-0.003906,0.027344
3425767000,0.999146,-0.033203,0.025635,-0.000916,0.003906,-0.003906,0.019531
3441149000,0.999146,-0.033142,0.025635,-0.000916,-0.035156,-0.003906,0.019531
3461771000,0.999146,-0.033203,0.025635,-0.000916,0.003906,-0.003906,0.019531
3481978000,0.999146,-0.033203,0.025696,-0.000916,0.003906,-0.003906,0.019531
3500874000,0.999146,-0.033203,0.025635,-0.000916,0.003906,-0.003906,-0.019531
3531591000,0.999146,-0.033203,0.025635,-0.000916,-0.027344,-0.003906,-0.019531
3541391000,0.999146,-0.033203,0.025635,-0.000916,0.011719,-0.003906,-0.019531
3560573000,0.999146,-0.033203,0.025635,-0.000916,0.011719,-0.003906,0.019531
3591227000,0.999146,-0.033203,0.025635,-0.000916,0.011719,-0.003906,0.027344
3604669000,0.999146,-0.033203,0.025635,-0.000916,0.011719,-0.003906,0.027344
3620746000,0.999146,-0.033203,0.025635,-0.000916,-0.027344,-0.003906,-0.011719
3643319000,0.999146,-0.033203,0.025635,-0.000916,0.011719,-0.003906,0.027344
3660275000,0.999146,-0.033203,0.025635,-0.000916,-0.027344,-0.003906,-0.011719
3684986000,0.999146,-0.033203,0.025635,-0.000916,0.011719,-0.003906,0.027344
3700080000,0.999146,-0.033203,0.025635,-0.000916,0.011719,-0.003906,-0.011719
3724812000,0.999146,-0.033203,0.025635,-0.000916,0.011719,-0.003906,-0.011719
3743274000,0.999146,-0.033203,0.025635,-0.000916,-0.027344,-0.003906,0.027344
3760062000,0.999146,-0.033203,0.025635,-0.000916,-0.027344,0.035156,-0.011719
3784346000,0.999146,-0.033203,0.025635,-0.000916,0.011719,-0.003906,0.027344
3799796000,0.999146,-0.033203,0.025635,-0.000916,0.011719,-0.003906,0.027344
3819671000,0.999146,-0.033203,0.025635,-0.000916,0.011719,0.035156,0.027344
3840941000,0.999146,-0.033203,0.025635,-0.000916,0.011719,-0.003906,-0.011719
3859708000,0.999146,-0.033203,0.025635,-0.000916,0.011719,-0.011719,0.027344
3879849000,0.999146,-0.033203,0.025635,-0.000916,0.011719,-0.011719,0.027344
3901137000,0.999146,-0.033203,0.025635,-0.000916,-0.027344,0.027344,0.027344
3926730000,0.999146,-0.033203,0.025635,-0.000916,0.011719,-0.011719,0.027344
3939712000,0.999146,-0.033203,0.025635,-0.000916,0.011719,-0.011719,-0.011719
3959416000,0.999146,-0.033203,0.025635,-0.000916,0.011719,0.027344,-0.011719
3979455000,0.999146,-0.033203,0.025635,-0.000916,0.011719,-0.011719,0.027344
4004008000,0.999146,-0.033203,0.025635,-0.000916,0.011719,-0.011719,0.027344
4019630000,0.999146,-0.033203,0.025635,-0.000916,0.011719,0.027344,-0.011719
4039365000,0.999146,-0.033203,0.025635,-0.000916,0.011719,0.027344,0.027344
4062174000,0.999146,-0.033203,0.025635,-0.000916,0.011719,-0.011719,0.027344
4084657000,0.999146,-0.033203,0.025635,-0.000916,0.011719,-0.011719,0.027344
4099308000,0.999146,-0.033203,0.025635,-0.000916,0.011719,-0.011719,0.027344
4119638000,0.999146,-0.033203,0.025635,-0.000916,0.011719,-0.011719,0.027344
4149605000,0.999146,-0.033203,0.025635,-0.000916,0.011719,-0.011719,-0.019531
4159830000,0.999146,-0.033203,0.025635,-0.000916,0.011719,-0.011719,0.019531
4178802000,0.999146,-0.033203,0.025635,-0.000916,0.003906,-0.011719,-0.019531
4199610000,0.999146,-0.033203,0.025635,-0.000916,0.003906,0.027344,0.019531
4224450000,0.999146,-0.033203,0.025635,-0.000916,0.003906,-0.011719,0.019531
4239110000,0.999146,-0.033203,0.025635,-0.000916,-0.035156,-0.011719,0.019531
4259830000,0.999146,-0.033203,0.025635,-0.000916,0.003906,-0.011719,0.019531
4289578000,0.999146,-0.033203,0.025635,-0.000916,0.003906,0.027344,-0.019531
4298651000,0.999146,-0.033203,0.025635,-0.000916,-0.035156,-0.011719,0.019531
4318965000,0.999146,-0.033203,0.025635,-0.000916,0.003906,0.027344,-0.019531
4338790000,0.999146,-0.033203,0.025635,-0.000916,0.003906,-0.011719,-0.019531
4358434000,0.999146,-0.033203,0.025635,-0.000916,0.003906,-0.011719,0.019531
4378154000,0.999146,-0.033203,0.025635,-0.000916,-0.035156,-0.011719,-0.019531
4398215000,0.999146,-0.033203,0.025635,-0.000916,-0.035156,-0.011719,-0.019531
4428650000,0.999146,-0.033203,0.025635,-0.000916,0.011719,-0.011719,0.019531
4438353000,0.999146,-0.033203,0.025635,-0.000916,0.011719,-0.011719,0.019531
4457990000,0.999146,-0.033203,0.025635,-0.000916,0.011719,-0.011719,0.019531
4478136000,0.999146,-0.033203,0.025635,-0.000916,0.003906,-0.011719,-0.019531
4501242000,0.999146,-0.033203,0.025635,-0.000916,0.003906,-0.011719,0.019531
4519081000,0.999146,-0.033203,0.025635,-0.000916,0.003906,-0.011719,0.019531
4548572000,0.999146,-0.033203,0.025635,-0.000916,0.003906,0.027344,-0.019531
4557694000,0.999146,-0.033203,0.025635,-0.000916,0.003906,0.027344,0.019531
4578108000,0.999146,-0.033203,0.025635,-0.000916,0.003906,-0.011719,0.019531
4608149000,0.999146,-0.033203,0.025635,-0.000916,0.003906,-0.011719,0.019531
4617694000,0.999146,-0.033203,0.025635,-0.000916,-0.035156,-0.011719,0.019531
4650603000,0.999146,-0.033203,0.025635,-0.000916,0.003906,-0.011719,0.019531
4657763000,0.999146,-0.033203,0.025635,-0.000916,0.003906,-0.011719,0.019531
4682859000,0.999146,-0.033203,0.025635,-0.000916,0.003906,-0.011719,0.019531
4697658000,0.999146,-0.033203,0.025635,-0.000916,0.003906,0.027344,-0.019531
4717684000,0.999146,-0.033203,0.025635,-0.000916,0.003906,-0.011719,0.019531
4747303000,0.999146,-0.033203,0.025635,-0.000916,0.003906,-0.011719,0.011719
4757645000,0.999146,-0.033203,0.025635,-0.000916,0.003906,-0.011719,0.011719
4781685000,0.999146,-0.033203,0.025635,-0.000916,0.003906,-0.011719,-0.027344
4797717000,0.999146,-0.033203,0.025635,-0.000916,0.003906,-0.011719,0.011719
4817431000,0.999146,-0.033203,0.025635,-0.000916,0.003906,-0.011719,0.011719
4847858000,0.999146,-0.033203,0.025635,-0.000916,0.003906,0.027344,0.011719
4857352000,0.999146,-0.033203,0.025635,-0.000916,0.003906,-0.011719,0.011719
4877545000,0.999146,-0.033203,0.025635,-0.000916,0.003906,-0.011719,0.011719
4903040000,0.999146,-0.033203,0.025635,-0.000916,-0.035156,-0.011719,0.011719
4917184000,0.999146,-0.033203,0.025635,-0.000916,-0.035156,0.027344,0.011719
4937088000,0.999146,-0.033203,0.025635,-0.000916,0.003906,-0.011719,-0.027344
4958197000,0.999146,-0.033203,0.025635,-0.000916,-0.035156,-0.011719,-0.027344
4976974000,0.999146,-0.033203,0.025635,-0.000916,0.003906,0.027344,0.011719
4997040000,0.999146,-0.033203,0.025635,-0.000916,0.003906,-0.011719,0.011719
5022299000,0.999146,-0.033203,0.025635,-0.000916,0.003906,0.027344,0.011719
5036944000,0.999146,-0.033203,0.025635,-0.000916,0.003906,-0.011719,0.011719
5057354000,0.999146,-0.033203,0.025635,-0.000916,-0.027344,-0.011719,0.011719
5076973000,0.999146,-0.033203,0.025635,-0.000916,0.011719,-0.011719,-0.027344
5096917000,0.999146,-0.033203,0.025635,-0.000916,0.011719,-0.011719,0.011719
5116924000,0.999146,-0.033203,0.025635,-0.000916,0.011719,-0.011719,0.011719
5137145000,0.999146,-0.033203,0.025635,-0.000916,0.011719,-0.011719,0.011719
5166112000,0.999146,-0.033203,0.025635,-0.000916,0.011719,-0.011719,0.011719
5176706000,0.999146,-0.033203,0.025635,-0.000916,0.011719,-0.011719,0.011719
5206264000,0.999146,-0.033203,0.025635,-0.000916,0.011719,-0.011719,0.011719
5216262000,0.999146,-0.033203,0.025635,-0.000916,0.011719,0.027344,-0.027344
5236876000,0.999146,-0.033203,0.025635,-0.000916,0.011719,-0.011719,0.011719
5266470000,0.999146,-0.033203,0.025635,-0.000916,0.011719,-0.011719,0.011719
5276000000,0.999146,-0.033203,0.025635,-0.000916,0.011719,-0.011719,0.011719
5296800000,0.999146,-0.033203,0.025635,-0.000916,0.011719,-0.011719,0.050781
5316764000,0.999146,-0.033203,0.025635,-0.000916,0.011719,0.027344,0.011719
5345831000,0.999146,-0.033203,0.025635,-0.000916,0.011719,-0.011719,0.011719
5355968000,0.999146,-0.033203,0.025635,-0.000916,0.011719,-0.011719,0.011719
5386290000,0.999146,-0.033203,0.025635,-0.000916,0.011719,-0.011719,0.011719
5401377000,0.999146,-0.033203,0.025635,-0.000916,-0.027344,0.027344,0.011719
5416056000,0.999146,-0.033203,0.025635,-0.000916,0.011719,-0.011719,0.011719
5436415000,0.999146,-0.033203,0.025635,-0.000916,0.046875,-0.011719,-0.027344
5465399000,0.999146,-0.033203,0.025635,-0.000916,0.011719,0.027344,0.011719
5475826000,0.999146,-0.033203,0.025635,-0.000916,0.011719,-0.011719,0.011719
5500377000,0.999146,-0.033203,0.025635,-0.000916,0.011719,0.027344,-0.027344
5516398000,0.999146,-0.033203,0.025635,-0.000916,0.011719,0.027344,-0.027344
5546586000,0.999146,-0.033203,0.025635,-0.000916,0.011719,-0.011719,-0.027344
5555322000,0.999146,-0.033203,0.025635,-0.000916,0.011719,-0.011719,0.011719
5576434000,0.999146,-0.033203,0.025635,-0.000916,0.003906,0.027344,0.011719
5596320000,0.999146,-0.033203,0.025635,-0.000916,0.003906,-0.011719,-0.027344
5616507000,0.999146,-0.033203,0.025635,-0.000916,0.003906,-0.011719,0.011719
5636515000,0.999146,-0.033203,0.025635,-0.000916,0.003906,-0.011719,-0.027344
5656172000,0.999146,-0.033203,0.025635,-0.000916,0.003906,0.019531,0.019531
5685377000,0.999146,-0.033203,0.025635,-0.000916,0.003906,-0.019531,0.019531
5695268000,0.999146,-0.033203,0.025635,-0.000916,0.003906,-0.019531,0.019531
5726121000,0.999146,-0.033203,0.025635,-0.000916,0.003906,-0.019531,0.011719
5735319000,0.999146,-0.033203,0.025635,-0.000916,0.003906,-0.019531,0.011719
5756031000,0.999146,-0.033203,0.025635,-0.000916,0.003906,0.019531,-0.027344
5776405000,0.999146,-0.033203,0.025635,-0.000916,0.003906,-0.011719,0.011719
5806293000,0.999146,-0.033203,0.025635,-0.000916,0.003906,-0.011719,0.011719
5824544000,0.999146,-0.033203,0.025635,-0.000916,0.003906,-0.011719,0.011719
5835107000,0.999146,-0.033203,0.025635,-0.000916,0.039062,-0.011719,0.011719
5865753000,0.999146,-0.033203,0.025635,-0.000916,0.003906,-0.011719,0.011719
5884895000,0.999146,-0.033203,0.025635,-0.000916,0.003906,-0.011719,-0.027344
5895140000,0.999146,-0.033203,0.025635,-0.000916,0.003906,-0.011719,-0.027344
5924329000,0.999146,-0.033203,0.025635,-0.000916,0.003906,-0.011719,0.011719
5944083000,0.999146,-0.033203,0.025635,-0.000916,0.003906,0.027344,0.011719
5964833000,0.999146,-0.033203,0.025635,-0.000916,0.003906,-0.011719,-0.027344
5984496000,0.999146,-0.033203,0.025635,-0.000916,0.003906,-0.011719,-0.027344
6004699000,0.999146,-0.033203,0.025635,-0.000916,0.039062,-0.011719,0.011719
6024172000,0.999146,-0.033203,0.025635,-0.000916,0.039062,-0.011719,-0.027344
6049098000,0.999146,-0.033203,0.025635,-0.000916,0.003906,-0.011719,0.011719
6065410000,0.999146,-0.033203,0.025635,-0.000916,0.003906,-0.011719,0.011719
6084718000,0.999146,-0.033203,0.025635,-0.000916,0.003906,-0.011719,-0.027344
6103606000,0.999146,-0.033203,0.025635,-0.000916,0.003906,0.027344,0.011719
6124847000,0.999146,-0.033203,0.025635,-0.000916,0.003906,-0.011719,0.011719
6143912000,0.999146,-0.033203,0.025635,-0.000916,0.003906,-0.011719,0.011719
6163809000,0.999146,-0.033203,0.025635,-0.000916,0.003906,-0.011719,0.050781
6183820000,0.999146,-0.033203,0.025635,-0.000916,0.003906,0.027344,-0.027344
6207642000,0.999146,-0.033203,0.025635,-0.000916,0.003906,-0.011719,0.011719
6224153000,0.999146,-0.033203,0.025635,-0.000916,0.003906,-0.011719,0.011719
6243618000,0.999146,-0.033203,0.025635,-0.000916,0.003906,-0.011719,0.011719
6263474000,0.999146,-0.033203,0.025635,-0.000916,0.003906,-0.011719,0.011719
6288386000,0.999146,-0.033203,0.025635,-0.000916,0.003906,-0.011719,-0.027344
6303777000,0.999146,-0.033203,0.025635,-0.000916,0.003906,-0.011719,0.011719
6324114000,0.999146,-0.033203,0.025635,-0.000916,0.003906,0.027344,0.011719
6345676000,0.999146,-0.033203,0.025635,-0.000916,0.003906,0.027344,0.011719
6363482000,0.999146,-0.033203,0.025635,-0.000916,0.003906,-0.011719,0.011719
6383782000,0.999146,-0.033203,0.025635,-0.000916,0.003906,-0.011719,0.011719
6402916000,0.999146,-0.033203,0.025635,-0.000916,0.003906,-0.011719,0.011719
6424206000,0.999146,-0.033203,0.025635,-0.000916,0.003906,-0.011719,-0.027344
6442809000,0.999146,-0.033203,0.025635,-0.000916,0.003906,-0.011719,0.011719
6463004000,0.999146,-0.033203,0.025635,-0.000916,0.003906,-0.011719,0.011719
6482100000,0.999146,-0.033203,0.025635,-0.000916,0.003906,-0.011719,0.011719
6504614000,0.999146,-0.033203,0.025635,-0.000916,0.003906,-0.011719,0.011719
6522745000,0.999146,-0.033203,0.025635,-0.000916,0.003906,-0.011719,0.011719
6542442000,0.999146,-0.033203,0.025635,-0.000916,0.003906,0.027344,0.011719
6563117000,0.999146,-0.033203,0.025635,-0.000916,0.003906,-0.011719,0.011719
6588324000,0.999146,-0.033203,0.025635,-0.000916,0.003906,-0.011719,0.011719
6603294000,0.999146,-0.033203,0.025635,-0.000916,-0.035156,-0.011719,0.011719
6622202000,0.999146,-0.033203,0.025635,-0.000916,0.003906,0.027344,0.011719
6646072000,0.999146,-0.033203,0.025635,-0.000916,0.003906,-0.011719,0.011719
6662775000,0.999146,-0.033203,0.025635,-0.000916,0.003906,-0.011719,0.050781
6682434000,0.999146,-0.033203,0.025635,-0.000916,0.003906,-0.011719,0.011719
6702132000,0.999146,-0.033203,0.025635,-0.000916,0.003906,-0.011719,0.050781
6725498000,0.999146,-0.033203,0.025635,-0.000916,0.003906,-0.011719,-0.035156
6741827000,0.999146,-0.033203,0.025635,-0.000916,0.003906,-0.011719,0.003906
6762308000,0.999146,-0.033203,0.025635,-0.000916,0.003906,-0.011719,0.003906
6782063000,0.999146,-0.033203,0.025635,-0.000916,0.003906,0.027344,0.003906
6806640000,0.999146,-0.033203,0.025635,-0.000916,0.003906,-0.011719,0.003906
6821749000,0.999146,-0.033203,0.025635,-0.000916,0.039062,-0.011719,0.003906
6842601000,0.999146,-0.033203,0.025635,-0.000916,0.003906,-0.011719,0.003906
6863161000,0.999146,-0.033203,0.025635,-0.000916,0.003906,-0.011719,0.003906
6881570000,0.999146,-0.033203,0.025635,-0.000916,0.003906,-0.011719,0.003906
6901743000,0.999146,-0.033203,0.025635,-0.000916,0.003906,-0.011719,-0.035156
6922627000,0.999146,-0.033203,0.025635,-0.000916,0.003906,-0.011719,0.003906
6942189000,0.999146,-0.033203,0.025635,-0.000916,0.003906,-0.011719,0.003906
6961601000,0.999146,-0.033203,0.025635,-0.000916,0.003906,0.027344,0.042969
6987035000,0.999146,-0.033203,0.025635,-0.000916,0.003906,0.027344,0.003906
7001469000,0.999146,-0.033203,0.025635,-0.000916,0.003906,0.027344,-0.035156
7021673000,0.999146,-0.033203,0.025635,-0.000916,0.003906,0.027344,0.003906
7042518000,0.999146,-0.033203,0.025635,-0.000916,0.003906,-0.011719,0.003906
7061652000,0.999146,-0.033264,0.025635,-0.000916,0.003906,-0.011719,0.003906
7081637000,0.999146,-0.033203,0.025635,-0.000916,0.003906,-0.011719,0.042969
7105057000,0.999146,-0.033203,0.025635,-0.000854,0.003906,-0.011719,0.003906
7121373000,0.999146,-0.033203,0.025635,-0.000854,0.003906,-0.011719,0.003906
7140902000,0.999146,-0.033264,0.025635,-0.000854,0.003906,-0.011719,-0.035156
7161188000,0.999146,-0.033264,0.025635,-0.000854,0.003906,-0.011719,0.003906
7184743000,0.999146,-0.033264,0.025635,-0.000854,0.003906,-0.011719,0.003906
7201204000,0.999146,-0.033264,0.025635,-0.000854,0.003906,-0.011719,0.003906
7221438000,0.999146,-0.033264,0.025635,-0.000854,0.003906,0.027344,0.003906
7246119000,0.999146,-0.033264,0.025635,-0.000854,-0.035156,0.027344,0.003906
7261012000,0.999146,-0.033203,0.025696,-0.000854,0.003906,-0.011719,0.003906
7280902000,0.999146,-0.033203,0.025696,-0.000854,0.003906,-0.019531,-0.035156
7310365000,0.999146,-0.033203,0.025696,-0.000854,0.039062,-0.019531,0.003906
7321392000,0.999146,-0.033203,0.025696,-0.000793,0.003906,0.019531,0.003906
7340790000,0.999146,-0.033203,0.025696,-0.000793,0.003906,0.019531,0.003906
7361395000,0.999146,-0.033203,0.025696,-0.000793,-0.035156,-0.019531,-0.035156
7380307000,0.999146,-0.033203,0.025696,-0.000793,0.003906,-0.019531,0.042969
7403266000,0.999146,-0.033142,0.025696,-0.000854,0.003906,-0.019531,0.003906
7420611000,0.999146,-0.033142,0.025696,-0.000854,0.003906,0.019531,0.003906
7444763000,0.999146,-0.033142,0.025635,-0.000854,0.003906,-0.019531,0.003906
7460197000,0.999146,-0.033142,0.025635,-0.000854,-0.035156,0.019531,0.003906
7480049000,0.999146,-0.033142,0.025635,-0.000854,0.003906,-0.019531,0.003906
7501304000,0.999146,-0.033142,0.025635,-0.000793,0.003906,-0.019531,0.003906
7524083000,0.999146,-0.033081,0.025635,-0.000854,0.003906,0.019531,0.003906
7540108000,0.999146,-0.033081,0.025635,-0.000854,-0.027344,-0.019531,0.003906
7560095000,0.999146,-0.033081,0.025635,-0.000854,0.011719,-0.019531,0.003906
7584472000,0.999146,-0.033081,0.025574,-0.000854,0.011719,0.019531,0.003906
7599677000,0.999146,-0.033081,0.025574,-0.000854,0.011719,-0.019531,0.003906
7620460000,0.999146,-0.033081,0.025574,-0.000854,0.011719,0.019531,0.003906
7649601000,0.999146,-0.033081,0.025574,-0.000793,0.011719,-0.019531,0.003906
7660063000,0.999146,-0.033081,0.025574,-0.000854,0.011719,-0.019531,0.003906
7679940000,0.999146,-0.033081,0.025574,-0.000854,0.011719,-0.019531,0.042969
7700431000,0.999146,-0.033081,0.025574,-0.000854,0.003906,-0.019531,0.003906
7719847000,0.999146,-0.033081,0.025574,-0.000854,0.003906,0.027344,0.003906
7740030000,0.999146,-0.033081,0.025574,-0.000854,0.003906,-0.011719,0.003906
7760578000,0.999146,-0.033081,0.025574,-0.000854,0.003906,-0.011719,0.042969
7779233000,0.999146,-0.033081,0.025574,-0.000854,0.003906,0.027344,0.003906
7800130000,0.999146,-0.033142,0.025574,-0.000854,0.039062,-0.011719,-0.035156
7825088000,0.999146,-0.033142,0.025574,-0.000854,0.003906,0.027344,0.003906
7839748000,0.999146,-0.033081,0.025574,-0.000854,0.003906,-0.011719,0.003906
7859670000,0.999146,-0.033081,0.025574,-0.000793,0.003906,-0.011719,0.042969
7884450000,0.999146,-0.033081,0.025574,-0.000854,0.003906,0.027344,0.003906
7899248000,0.999146,-0.033081,0.025574,-0.000793,0.003906,-0.011719,0.003906
7919901000,0.999146,-0.033081,0.025574,-0.000854,0.003906,0.019531,0.003906
7943434000,0.999146,-0.033081,0.025574,-0.000793,0.003906,-0.019531,-0.035156
7959163000,0.999146,-0.033081,0.025635,-0.000854,0.003906,0.019531,0.003906
7979577000,0.999146,-0.033081,0.025635,-0.000854,0.003906,0.019531,0.003906
7999118000,0.999146,-0.033020,0.025635,-0.000854,0.039062,-0.019531,0.003906
8029050000,0.999146,-0.033020,0.025635,-0.000854,0.039062,-0.019531,0.003906
8038950000,0.999146,-0.033020,0.025635,-0.000854,0.003906,-0.019531,0.003906
8058266000,0.999146,-0.033020,0.025635,-0.000854,0.003906,0.019531,0.003906
8078334000,0.999146,-0.033020,0.025635,-0.000854,0.003906,-0.019531,0.042969
8100345000,0.999146,-0.033020,0.025635,-0.000854,-0.035156,-0.019531,0.042969
8125197000,0.999146,-0.033020,0.025635,-0.000854,0.003906,-0.019531,0.003906
8141832000,0.999146,-0.033020,0.025635,-0.000854,0.003906,-0.019531,0.003906
8158130000,0.999146,-0.033020,0.025635,-0.000854,0.003906,-0.019531,0.003906
8188779000,0.999146,-0.033020,0.025635,-0.000854,0.003906,-0.019531,0.042969
8198063000,0.999146,-0.033020,0.025635,-0.000854,0.003906,-0.011719,0.003906
8218586000,0.999146,-0.033081,0.025574,-0.000854,0.003906,-0.011719,0.003906
8238209000,0.999146,-0.033081,0.025574,-0.000854,0.003906,0.027344,-0.035156
8259262000,0.999146,-0.033081,0.025574,-0.000793,0.003906,-0.011719,0.003906
8287722000,0.999146,-0.033142,0.025574,-0.000793,0.003906,-0.011719,0.042969
8298013000,0.999146,-0.033142,0.025574,-0.000793,0.003906,0.027344,0.003906
8317945000,0.999146,-0.033081,0.025574,-0.000854,0.003906,0.027344,0.003906
8338428000,0.999146,-0.033142,0.025574,-0.000854,0.003906,-0.011719,0.003906
8367623000,0.999146,-0.033081,0.025574,-0.000854,0.003906,-0.011719,0.003906
8377767000,0.999146,-0.033081,0.025574,-0.000854,0.003906,0.027344,0.003906
8398212000,0.999146,-0.033081,0.025574,-0.000854,0.003906,-0.011719,0.003906
8417340000,0.999146,-0.033142,0.025574,-0.000854,0.003906,0.027344,0.003906
8443879000,0.999146,-0.033142,0.025574,-0.000854,0.003906,-0.019531,0.003906
8457735000,0.999146,-0.033142,0.025574,-0.000854,0.003906,-0.019531,0.003906
8478215000,0.999146,-0.033142,0.025574,-0.000854,0.003906,-0.019531,0.042969
8507934000,0.999146,-0.033142,0.025574,-0.000854,0.003906,0.019531,-0.003906
8523125000,0.999146,-0.033142,0.025513,-0.000854,0.003906,-0.019531,-0.003906
8537592000,0.999146,-0.033142,0.025513,-0.000854,0.003906,-0.019531,-0.003906
8557984000,0.999146,-0.033081,0.025574,-0.000854,0.003906,-0.019531,0.035156
8587074000,0.999146,-0.033081,0.025574,-0.000854,0.003906,0.019531,0.042969
8597643000,0.999146,-0.033081,0.025574,-0.000854,0.003906,-0.019531,0.003906
8617449000,0.999146,-0.033081,0.025574,-0.000854,0.003906,-0.019531,0.003906
8647521000,0.999146,-0.033081,0.025574,-0.000854,0.039062,-0.011719,0.003906
8662830000,0.999146,-0.033081,0.025574,-0.000793,0.003906,-0.011719,0.003906
8677408000,0.999146,-0.033020,0.025574,-0.000793,0.003906,0.027344,0.003906
8697462000,0.999146,-0.033020,0.025635,-0.000854,0.003906,0.019531,-0.003906
8718226000,0.999146,-0.033020,0.025574,-0.000793,0.003906,-0.058594,-0.003906
8747539000,0.999146,-0.033020,0.025635,-0.000793,0.003906,-0.011719,-0.003906
8756632000,0.999146,-0.033081,0.025635,-0.000793,0.003906,-0.011719,-0.003906
8777337000,0.999146,-0.033020,0.025635,-0.000793,0.003906,0.027344,-0.003906
8806281000,0.999146,-0.033020,0.025635,-0.000793,0.003906,0.027344,-0.003906
8817150000,0.999146,-0.033020,0.025635,-0.000793,0.003906,0.027344,-0.035156
8838221000,0.999146,-0.033020,0.025574,-0.000793,0.003906,0.019531,0.003906
8857129000,0.999146,-0.033020,0.025635,-0.000793,0.003906,-0.019531,0.003906
8886240000,0.999146,-0.033020,0.025635,-0.000793,0.003906,-0.019531,0.042969
8896754000,0.999146,-0.033020,0.025635,-0.000793,0.003906,-0.019531,0.003906
8916789000,0.999146,-0.033020,0.025635,-0.000793,-0.003906,-0.019531,-0.035156
8939412000,0.999146,-0.033081,0.025635,-0.000793,0.003906,0.027344,0.003906
8966911000,0.999146,-0.033081,0.025574,-0.000793,-0.003906,0.027344,0.042969
8976589000,0.999146,-0.033081,0.025574,-0.000793,-0.003906,-0.011719,0.003906
8996793000,0.999146,-0.033081,0.025574,-0.000793,-0.003906,0.027344,0.003906
9016741000,0.999146,-0.033081,0.025574,-0.000793,-0.003906,0.019531,-0.035156
9037819000,0.999146,-0.033020,0.025574,-0.000793,0.031250,-0.019531,-0.035156
9056330000,0.999146,-0.033020,0.025574,-0.000793,0.031250,-0.019531,0.042969
9076788000,0.999146,-0.033020,0.025574,-0.000793,-0.003906,-0.019531,0.003906
9105620000,0.999146,-0.033020,0.025574,-0.000793,-0.003906,0.019531,0.003906
9116065000,0.999146,-0.033020,0.025574,-0.000793,-0.003906,-0.019531,-0.035156
9136888000,0.999146,-0.033081,0.025574,-0.000793,-0.003906,-0.019531,0.003906
9156813000,0.999146,-0.033081,0.025574,-0.000793,-0.003906,-0.019531,0.003906
9182435000,0.999146,-0.033081,0.025574,-0.000793,-0.003906,-0.019531,0.003906
9196386000,0.999146,-0.033081,0.025574,-0.000793,-0.003906,-0.011719,0.003906
9216344000,0.999146,-0.033081,0.025574,-0.000793,-0.003906,-0.011719,0.003906
9236350000,0.999146,-0.033081,0.025574,-0.000793,-0.003906,-0.011719,0.003906
9256456000,0.999146,-0.033081,0.025574,-0.000793,-0.003906,0.027344,0.003906
9284908000,0.999146,-0.033081,0.025574,-0.000793,-0.003906,-0.011719,0.003906
9295260000,0.999146,-0.033081,0.025574,-0.000793,-0.003906,0.027344,0.003906
9316689000,0.999146,-0.033081,0.025574,-0.000793,0.031250,-0.011719,0.003906
9345218000,0.999146,-0.033081,0.025574,-0.000793,-0.003906,-0.011719,0.003906
9355572000,0.999146,-0.033081,0.025574,-0.000793,-0.003906,0.027344,0.003906
9376616000,0.999146,-0.033081,0.025574,-0.000793,-0.003906,-0.011719,0.042969
9404720000,0.999146,-0.033081,0.025574,-0.000793,-0.003906,-0.011719,0.003906
9415384000,0.999146,-0.033081,0.025574,-0.000793,-0.003906,-0.011719,0.042969
9437026000,0.999146,-0.033081,0.025574,-0.000793,-0.003906,0.019531,0.003906
9456538000,0.999146,-0.033081,0.025574,-0.000793,-0.003906,-0.019531,0.003906
9484406000,0.999146,-0.033081,0.025574,-0.000793,0.003906,-0.019531,0.003906
9500370000,0.999146,-0.033081,0.025574,-0.000793,0.039062,-0.019531,0.003906
9529878000,0.999146,-0.033081,0.025574,-0.000793,0.003906,-0.019531,0.042969
9535817000,0.999146,-0.033081,0.025574,-0.000793,0.003906,-0.019531,0.003906
9564520000,0.999146,-0.033081,0.025574,-0.000793,0.003906,-0.019531,0.003906
9575238000,0.999146,-0.033081,0.025574,-0.000793,0.003906,0.019531,0.003906
9607575000,0.999146,-0.033081,0.025574,-0.000793,0.003906,0.019531,0.003906
9624387000,0.999146,-0.033081,0.025574,-0.000793,0.003906,-0.019531,-0.035156
9644669000,0.999146,-0.033081,0.025574,-0.000793,0.003906,-0.019531,0.003906
9669379000,0.999146,-0.033081,0.025574,-0.000793,0.003906,-0.019531,0.003906
9675320000,0.999146,-0.033081,0.025574,-0.000793,0.003906,-0.019531,0.003906
9704379000,0.999146,-0.033081,0.025574,-0.000793,0.003906,-0.019531,0.003906
9724214000,0.999146,-0.033081,0.025574,-0.000793,0.003906,-0.019531,0.003906
9743834000,0.999146,-0.033081,0.025574,-0.000793,0.003906,0.027344,0.003906
9764377000,0.999146,-0.033081,0.025574,-0.000793,0.003906,-0.011719,0.042969
9784062000,0.999146,-0.033081,0.025574,-0.000793,0.003906,-0.011719,0.003906
9803802000,0.999146,-0.033081,0.025574,-0.000793,0.003906,-0.011719,0.003906
9829950000,0.999146,-0.033081,0.025574,-0.000793,-0.035156,0.027344,0.003906
9843616000,0.999146,-0.033081,0.025574,-0.000793,0.003906,-0.011719,0.003906
9864405000,0.999146,-0.033081,0.025574,-0.000793,0.003906,0.027344,0.003906
9885296000,0.999146,-0.033081,0.025574,-0.000793,0.003906,-0.011719,0.042969
9903273000,0.999146,-0.033081,0.025574,-0.000793,0.003906,-0.019531,0.003906
9923879000,0.999146,-0.033081,0.025574,-0.000793,0.003906,-0.019531,0.042969
9943509000,0.999146,-0.033081,0.025574,-0.000793,0.003906,0.019531,0.003906
9970576000,0.999146,-0.033081,0.025574,-0.000793,0.003906,-0.011719,0.003906
9983387000,0.999146,-0.033081,0.025574,-0.000793,0.003906,-0.011719,0.042969
10003771000,0.999146,-0.033081,0.025574,-0.000793,0.003906,-0.011719,0.003906
10023029000,0.999146,-0.033081,0.025574,-0.000793,0.003906,0.027344,0.042969
10044719000,0.999146,-0.033081,0.025574,-0.000793,0.003906,-0.011719,0.042969
10071307000,0.999146,-0.033081,0.025574,-0.000793,0.003906,-0.019531,0.042969
10082669000,0.999146,-0.033081,0.025574,-0.000793,0.039062,-0.019531,0.003906
10102745000,0.999146,-0.033081,0.025574,-0.000793,0.003906,-0.019531,-0.003906
10125161000,0.999146,-0.033081,0.025574,-0.000793,0.003906,-0.019531,-0.003906
10143104000,0.999146,-0.033081,0.025574,-0.000793,-0.035156,-0.019531,-0.003906
10162583000,0.999146,-0.033081,0.025574,-0.000793,0.003906,-0.019531,-0.003906
10182389000,0.999146,-0.033081,0.025574,-0.000793,0.003906,-0.019531,-0.003906
10205369000,0.999146,-0.033081,0.025574,-0.000793,-0.035156,0.027344,0.003906
10222897000,0.999146,-0.033081,0.025574,-0.000793,0.003906,-0.011719,0.003906
10243147000,0.999146,-0.033081,0.025574,-0.000793,0.003906,-0.011719,0.042969
10262299000,0.999146,-0.033081,0.025574,-0.000793,0.003906,-0.011719,0.003906
10282433000,0.999146,-0.033081,0.025574,-0.000793,0.003906,0.027344,0.003906
10302519000,0.999146,-0.033081,0.025574,-0.000793,-0.035156,-0.011719,0.003906
10322825000,0.999146,-0.033081,0.025574,-0.000793,0.039062,-0.011719,0.003906
10341994000,0.999146,-0.033081,0.025574,-0.000793,0.003906,-0.011719,0.042969
10364791000,0.999146,-0.033081,0.025574,-0.000793,0.003906,0.027344,0.003906
10388061000,0.999146,-0.033081,0.025574,-0.000793,0.003906,0.027344,0.042969
10402516000,0.999146,-0.033081,0.025574,-0.000793,0.003906,0.027344,0.042969
10421766000,0.999146,-0.033081,0.025574,-0.000793,0.003906,0.027344,0.042969
10442545000,0.999146,-0.033081,0.025574,-0.000793,0.003906,0.019531,-0.003906
10466745000,0.999146,-0.033081,0.025574,-0.000793,0.039062,0.019531,-0.003906
10481922000,0.999146,-0.033081,0.025574,-0.000793,0.003906,-0.019531,-0.003906
10506391000,0.999146,-0.033081,0.025574,-0.000793,0.039062,-0.019531,-0.003906
10521996000,0.999146,-0.033081,0.025574,-0.000793,0.003906,0.019531,-0.003906
10541824000,0.999146,-0.033081,0.025574,-0.000793,0.003906,0.019531,-0.003906
10562181000,0.999146,-0.033081,0.025574,-0.000793,0.003906,0.019531,-0.003906
10591749000,0.999146,-0.033081,0.025574,-0.000793,0.003906,-0.019531,-0.003906
10601733000,0.999146,-0.033081,0.025574,-0.000793,0.003906,-0.019531,-0.003906
10621511000,0.999146,-0.033081,0.025574,-0.000793,0.003906,-0.019531,0.003906
10641352000,0.999146,-0.033081,0.025574,-0.000793,0.003906,-0.019531,0.003906
10661292000,0.999146,-0.033081,0.025574,-0.000793,0.003906,0.019531,0.003906
10687255000,0.999146,-0.033081,0.025574,-0.000793,0.003906,-0.019531,0.003906
10701624000,0.999146,-0.033081,0.025574,-0.000793,0.003906,-0.019531,0.003906
10720922000,0.999146,-0.033081,0.025574,-0.000793,-0.035156,-0.019531,0.042969
10741543000,0.999146,-0.033081,0.025574,-0.000793,0.003906,0.019531,0.003906
10761492000,0.999146,-0.033081,0.025574,-0.000793,0.039062,-0.019531,0.003906
10783075000,0.999146,-0.033081,0.025574,-0.000793,0.003906,-0.019531,0.003906
10800985000,0.999146,-0.033081,0.025574,-0.000793,0.003906,-0.019531,0.003906
10831395000,0.999146,-0.033081,0.025574,-0.000793,0.003906,0.019531,0.003906
10846154000,0.999146,-0.033081,0.025574,-0.000793,0.003906,-0.019531,0.003906
10860655000,0.999146,-0.033081,0.025574,-0.000793,0.003906,0.019531,0.003906
10880741000,0.999146,-0.033081,0.025574,-0.000793,0.003906,0.019531,0.003906
10902248000,0.999146,-0.033081,0.025574,-0.000793,0.003906,0.019531,0.003906
10927503000,0.999146,-0.033081,0.025574,-0.000793,0.003906,-0.019531,0.003906
10940479000,0.999146,-0.033081,0.025574,-0.000793,0.003906,-0.019531,-0.035156
10960510000,0.999146,-0.033081,0.025574,-0.000793,0.003906,0.019531,0.003906
10992621000,0.999146,-0.033081,0.025574,-0.000793,0.003906,0.019531,0.003906
11000729000,0.999146,-0.033081,0.025574,-0.000793,0.003906,-0.019531,0.003906
11020165000,0.999146,-0.033081,0.025574,-0.000793,0.003906,-0.019531,0.042969
11040243000,0.999146,-0.033081,0.025574,-0.000793,0.003906,0.019531,0.003906
11061371000,0.999146,-0.033081,0.025574,-0.000793,0.003906,0.019531,0.003906
11088633000,0.999146,-0.033081,0.025574,-0.000793,0.003906,-0.019531,0.003906
11100303000,0.999146,-0.033081,0.025574,-0.000793,0.003906,-0.019531,0.003906
11120009000,0.999146,-0.033081,0.025574,-0.000793,0.003906,-0.019531,0.003906
11141296000,0.999146,-0.033081,0.025574,-0.000793,0.003906,-0.019531,0.003906
11166403000,0.999146,-0.033081,0.025574,-0.000793,0.003906,-0.019531,0.003906
11179910000,0.999146,-0.033081,0.025574,-0.000793,0.003906,-0.019531,0.003906
11200069000,0.999146,-0.033081,0.025574,-0.000793,0.003906,-0.019531,0.003906
11220350000,0.999146,-0.033081,0.025574,-0.000793,0.003906,-0.019531,0.003906
11239774000,0.999146,-0.033081,0.025574,-0.000793,-0.035156,-0.019531,0.003906
11261178000,0.999146,-0.033081,0.025574,-0.000793,0.003906,0.019531,0.003906
11279393000,0.999146,-0.033081,0.025574,-0.000793,0.003906,-0.019531,0.003906
11301631000,0.999146,-0.033081,0.025574,-0.000793,0.003906,-0.019531,0.003906
11319739000,0.999146,-0.033081,0.025574,-0.000793,0.003906,-0.019531,0.003906
11339469000,0.999146,-0.033081,0.025574,-0.000793,-0.035156,0.019531,0.042969
11364804000,0.999146,-0.033081,0.025574,-0.000793,-0.035156,-0.019531,0.003906
11379605000,0.999146,-0.033081,0.025574,-0.000793,0.003906,-0.011719,0.042969
11399515000,0.999146,-0.033081,0.025574,-0.000793,0.003906,-0.011719,0.003906
11429172000,0.999146,-0.033081,0.025574,-0.000793,0.003906,0.027344,0.003906
11445919000,0.999146,-0.033081,0.025574,-0.000793,0.003906,0.019531,0.003906
11459498000,0.999146,-0.033081,0.025574,-0.000793,0.003906,-0.019531,0.003906
11479499000,0.999146,-0.033081,0.025574,-0.000793,0.003906,-0.019531,0.035156
11505975000,0.999146,-0.033081,0.025574,-0.000793,0.003906,0.019531,-0.003906
11519760000,0.999146,-0.033081,0.025574,-0.000793,0.003906,-0.019531,-0.003906
11548808000,0.999146,-0.033081,0.025574,-0.000793,0.003906,-0.011719,-0.003906
11559768000,0.999146,-0.033081,0.025574,-0.000793,0.003906,-0.011719,-0.042969
11578731000,0.999146,-0.033081,0.025574,-0.000793,0.003906,-0.011719,-0.003906
11609386000,0.999146,-0.033081,0.025574,-0.000793,0.003906,0.027344,0.003906
11618482000,0.999146,-0.033081,0.025574,-0.000793,0.003906,0.027344,0.003906
11639204000,0.999146,-0.033081,0.025574,-0.000793,0.003906,0.019531,0.003906
11663580000,0.999146,-0.033081,0.025574,-0.000793,0.003906,0.019531,0.003906
11679067000,0.999146,-0.033081,0.025574,-0.000793,0.003906,-0.019531,0.003906
11698322000,0.999146,-0.033081,0.025574,-0.000793,0.039062,0.019531,0.003906
11728717000,0.999146,-0.033081,0.025574,-0.000793,-0.035156,-0.019531,0.042969
11738166000,0.999146,-0.033081,0.025574,-0.000793,0.003906,-0.019531,0.003906
11758298000,0.999146,-0.033081,0.025574,-0.000793,0.003906,-0.019531,0.003906
11779011000,0.999146,-0.033081,0.025574,-0.000793,0.039062,-0.019531,0.042969
11798296000,0.999146,-0.033081,0.025574,-0.000793,-0.035156,0.019531,0.003906
11818650000,0.999146,-0.033081,0.025574,-0.000793,0.003906,0.019531,0.003906
11839230000,0.999146,-0.033081,0.025574,-0.000793,0.003906,-0.019531,0.003906
11863595000,0.999146,-0.033081,0.025574,-0.000793,0.003906,-0.019531,0.003906
11877772000,0.999146,-0.033081,0.025574,-0.000793,0.003906,-0.019531,0.003906
11898258000,0.999146,-0.033081,0.025574,-0.000793,0.003906,-0.019531,0.003906
11919667000,0.999146,-0.033081,0.025574,-0.000793,0.003906,-0.019531,0.003906
11943823000,0.999146,-0.033081,0.025574,-0.000793,0.003906,0.019531,0.003906
11957777000,0.999146,-0.033081,0.025574,-0.000793,0.003906,0.019531,0.003906
11978163000,0.999146,-0.033081,0.025574,-0.000793,0.003906,-0.019531,0.003906
12010276000,0.999146,-0.033081,0.025574,-0.000793,0.003906,-0.019531,0.003906
12018089000,0.999146,-0.033081,0.025574,-0.000793,0.003906,-0.019531,0.003906
12037913000,0.999146,-0.033081,0.025574,-0.000793,0.003906,-0.019531,0.003906
12061978000,0.999146,-0.033081,0.025574,-0.000793,0.003906,0.019531,0.003906
12078166000,0.999146,-0.033081,0.025574,-0.000793,0.003906,0.019531,0.042969
12097869000,0.999146,-0.033081,0.025574,-0.000793,0.003906,-0.019531,0.003906
12118417000,0.999146,-0.033081,0.025574,-0.000793,0.003906,0.019531,0.003906
12147386000,0.999146,-0.033081,0.025574,-0.000793,0.003906,0.019531,0.003906
12157705000,0.999146,-0.033081,0.025574,-0.000793,0.003906,-0.019531,0.042969
12179885000,0.999146,-0.033081,0.025574,-0.000793,0.003906,-0.019531,0.003906
12207043000,0.999146,-0.033081,0.025574,-0.000793,0.003906,0.019531,0.003906
12217730000,0.999146,-0.033081,0.025574,-0.000793,0.003906,0.019531,0.042969
12237371000,0.999146,-0.033081,0.025574,-0.000793,0.003906,-0.019531,0.003906
12267342000,0.999146,-0.033081,0.025574,-0.000793,0.003906,-0.019531,0.003906
12277358000,0.999146,-0.033081,0.025574,-0.000793,0.003906,-0.019531,0.042969
12297179000,0.999146,-0.033081,0.025574,-0.000793,0.003906,0.019531,0.003906
12326691000,0.999146,-0.033081,0.025574,-0.000793,0.003906,-0.019531,-0.003906
12337029000,0.999146,-0.033081,0.025574,-0.000793,0.003906,0.019531,-0.003906
12357265000,0.999146,-0.033081,0.025574,-0.000793,0.003906,0.019531,-0.003906
12377489000,0.999146,-0.033081,0.025574,-0.000793,0.003906,-0.019531,0.003906
12407057000,0.999146,-0.033081,0.025574,-0.000793,0.003906,-0.019531,0.003906
12416975000,0.999146,-0.033081,0.025574,-0.000793,0.003906,0.019531,0.003906
12437313000,0.999146,-0.033081,0.025574,-0.000793,0.039062,-0.019531,0.003906
12466691000,0.999146,-0.033081,0.025574,-0.000793,0.003906,-0.019531,0.003906
12476407000,0.999146,-0.033081,0.025574,-0.000793,0.003906,0.019531,0.042969
12497262000,0.999146,-0.033081,0.025574,-0.000793,0.003906,-0.019531,0.003906
12526580000,0.999146,-0.033081,0.025574,-0.000793,0.003906,0.019531,0.003906
12536432000,0.999146,-0.033081,0.025574,-0.000793,0.003906,-0.019531,0.035156
12556988000,0.999146,-0.033081,0.025574,-0.000793,0.003906,0.019531,-0.003906
12586543000,0.999146,-0.033081,0.025574,-0.000793,0.003906,0.019531,-0.003906
12596156000,0.999146,-0.033081,0.025574,-0.000793,0.003906,0.019531,-0.003906
12617499000,0.999146,-0.033081,0.025574,-0.000793,0.003906,-0.019531,-0.003906
12636930000,0.999146,-0.033081,0.025574,-0.000793,0.003906,-0.019531,-0.003906
12656974000,0.999146,-0.033081,0.025574,-0.000793,0.003906,-0.019531,-0.003906
12678164000,0.999146,-0.033081,0.025574,-0.000793,0.003906,-0.019531,-0.035156
12696263000,0.999146,-0.033081,0.025574,-0.000793,0.003906,-0.019531,0.003906
12716675000,0.999146,-0.033081,0.025574,-0.000793,0.003906,0.019531,0.003906
12737317000,0.999146,-0.033081,0.025574,-0.000793,0.003906,-0.019531,0.003906
12766072000,0.999146,-0.033081,0.025574,-0.000793,0.003906,-0.019531,0.003906
12775537000,0.999146,-0.033081,0.025574,-0.000793,0.003906,0.019531,0.003906
12796678000,0.999146,-0.033081,0.025574,-0.000793,0.003906,-0.019531,0.003906
12817427000,0.999146,-0.033081,0.025574,-0.000793,0.003906,-0.019531,0.003906
12845367000,0.999146,-0.033081,0.025574,-0.000793,0.003906,0.019531,0.003906
12855250000,0.999146,-0.033081,0.025574,-0.000793,0.003906,0.019531,0.042969
12876676000,0.999146,-0.033081,0.025574,-0.000793,0.003906,-0.019531,-0.035156
12905545000,0.999146,-0.033081,0.025574,-0.000793,0.003906,0.019531,0.003906
12915233000,0.999146,-0.033081,0.025574,-0.000793,0.003906,0.019531,0.003906
12937445000,0.999146,-0.033081,0.025574,-0.000793,0.003906,0.019531,0.003906
12965017000,0.999146,-0.033081,0.025574,-0.000793,0.039062,0.019531,-0.003906
12975298000,0.999146,-0.033081,0.025574,-0.000793,0.003906,0.019531,-0.003906
13005289000,0.999146,-0.033081,0.025574,-0.000793,0.003906,0.019531,-0.042969
13025382000,0.999146,-0.033081,0.025574,-0.000793,0.003906,0.019531,0.003906
13046853000,0.999146,-0.033081,0.025574,-0.000793,0.003906,-0.019531,-0.035156
13055412000,0.999146,-0.033081,0.025574,-0.000793,0.003906,-0.019531,0.042969
13076600000,0.999146,-0.033081,0.025574,-0.000793,0.003906,-0.019531,0.003906
13105407000,0.999146,-0.033081,0.025574,-0.000793,-0.003906,-0.019531,0.003906
13115327000,0.999146,-0.033081,0.025574,-0.000793,-0.003906,-0.019531,0.003906
13144865000,0.999146,-0.033081,0.025574,-0.000793,-0.003906,0.019531,0.003906
13165183000,0.999146,-0.033081,0.025574,-0.000793,-0.042969,-0.019531,-0.035156
13175253000,0.999146,-0.033081,0.025574,-0.000793,0.003906,-0.019531,0.042969
13204615000,0.999146,-0.033081,0.025574,-0.000793,0.003906,-0.019531,0.003906
13224577000,0.999146,-0.033081,0.025574,-0.000793,0.003906,-0.019531,0.003906
13245343000,0.999146,-0.033081,0.025574,-0.000793,0.003906,0.019531,0.003906
13255148000,0.999146,-0.033081,0.025574,-0.000793,0.003906,0.019531,0.003906
13284736000,0.999146,-0.033081,0.025574,-0.000793,0.003906,-0.019531,0.003906
13304049000,0.999146,-0.033081,0.025574,-0.000793,0.003906,-0.019531,0.003906
13329171000,0.999146,-0.033081,0.025574,-0.000793,0.003906,-0.019531,0.003906
13344248000,0.999146,-0.033081,0.025574,-0.000793,0.003906,-0.019531,0.003906
13364569000,0.999146,-0.033081,0.025574,-0.000793,0.003906,0.019531,0.042969
13385043000,0.999146,-0.033081,0.025574,-0.000793,0.003906,-0.019531,0.003906
13404350000,0.999146,-0.033081,0.025574,-0.000793,0.003906,0.019531,-0.035156
13423744000,0.999146,-0.033081,0.025574,-0.000793,0.003906,0.019531,0.042969
13451001000,0.999146,-0.033081,0.025574,-0.000793,0.003906,-0.019531,0.003906
13463987000,0.999146,-0.033081,0.025574,-0.000793,0.003906,-0.019531,0.003906
13483556000,0.999146,-0.033081,0.025574,-0.000793,0.003906,-0.019531,0.003906
13507413000,0.999146,-0.033081,0.025574,-0.000793,0.003906,-0.019531,0.003906
13523693000,0.999146,-0.033081,0.025574,-0.000793,0.003906,-0.019531,0.003906
13546513000,0.999146,-0.033081,0.025574,-0.000793,0.003906,-0.019531,-0.003906
13563370000,0.999146,-0.033081,0.025574,-0.000793,0.003906,-0.019531,-0.003906
13585175000,0.999146,-0.033081,0.025574,-0.000793,0.003906,0.019531,0.003906
13603355000,0.999146,-0.033081,0.025574,-0.000793,0.003906,0.019531,0.003906
13625592000,0.999146,-0.033081,0.025574,-0.000793,0.003906,-0.019531,-0.003906
13650887000,0.999146,-0.033081,0.025574,-0.000793,0.003906,-0.019531,0.035156
13664105000,0.999146,-0.033081,0.025574,-0.000793,0.003906,-0.019531,-0.003906
13683091000,0.999146,-0.033081,0.025574,-0.000793,0.003906,-0.019531,-0.003906
13705547000,0.999146,-0.033081,0.025574,-0.000793,0.003906,0.019531,-0.003906
13723522000,0.999146,-0.033081,0.025574,-0.000793,0.003906,0.019531,-0.003906
13743114000,0.999146,-0.033081,0.025574,-0.000793,0.003906,0.019531,-0.003906
13767259000,0.999146,-0.033081,0.025574,-0.000793,0.003906,0.019531,-0.003906
13782694000,0.999146,-0.033081,0.025574,-0.000793,0.003906,-0.027344,-0.003906
13802874000,0.999146,-0.033081,0.025574,-0.000793,0.003906,0.011719,-0.003906
13823363000,0.999146,-0.033081,0.025574,-0.000793,0.039062,-0.027344,-0.003906
13847693000,0.999146,-0.033081,0.025574,-0.000793,0.003906,-0.027344,-0.003906
13863191000,0.999146,-0.033081,0.025574,-0.000793,0.003906,-0.027344,-0.003906
13887851000,0.999146,-0.033081,0.025574,-0.000793,0.003906,-0.019531,0.035156
13902870000,0.999146,-0.033081,0.025574,-0.000793,0.003906,-0.019531,-0.003906
13923977000,0.999146,-0.033081,0.025574,-0.000793,0.003906,0.019531,-0.003906
13942661000,0.999146,-0.033081,0.025574,-0.000793,0.003906,-0.019531,-0.003906
13966664000,0.999146,-0.033081,0.025574,-0.000793,0.003906,0.019531,0.035156
13982219000,0.999146,-0.033081,0.025574,-0.000793,0.003906,-0.019531,-0.003906
14002542000,0.999146,-0.033081,0.025574,-0.000793,0.003906,-0.019531,-0.003906
14032605000,0.999146,-0.033081,0.025574,-0.000793,0.003906,-0.019531,-0.003906
14042961000,0.999146,-0.033081,0.025574,-0.000793,0.003906,-0.019531,-0.003906
14062746000,0.999146,-0.033081,0.025574,-0.000793,0.003906,-0.019531,0.035156
14082286000,0.999146,-0.033081,0.025574,-0.000793,0.003906,-0.019531,-0.003906
14108917000,0.999146,-0.033081,0.025574,-0.000793,0.003906,0.019531,-0.003906
14122386000,0.999146,-0.033081,0.025574,-0.000793,0.003906,-0.019531,0.035156
14141904000,0.999146,-0.033081,0.025574,-0.000793,0.003906,-0.019531,-0.003906
14161863000,0.999146,-0.033081,0.025574,-0.000793,0.003906,-0.019531,-0.003906
14182433000,0.999146,-0.033081,0.025574,-0.000793,0.003906,-0.019531,-0.003906
14201771000,0.999146,-0.033081,0.025574,-0.000793,0.003906,-0.019531,-0.003906
14222081000,0.999146,-0.033081,0.025574,-0.000793,0.003906,-0.019531,-0.003906
14251454000,0.999146,-0.033081,0.025574,-0.000793,0.003906,0.019531,-0.003906
14264532000,0.999146,-0.033081,0.025574,-0.000793,0.003906,0.019531,-0.042969
14287209000,0.999146,-0.033081,0.025574,-0.000793,0.003906,-0.019531,-0.042969
14301694000,0.999146,-0.033081,0.025574,-0.000793,0.003906,0.019531,-0.003906
14321351000,0.999146,-0.033081,0.025574,-0.000793,0.003906,-0.019531,0.003906
14342262000,0.999146,-0.033081,0.025574,-0.000793,0.003906,-0.019531,0.003906
14370588000,0.999146,-0.033081,0.025574,-0.000793,0.003906,0.019531,0.003906
14378143000,0.999146,-0.033081,0.025574,-0.000793,0.003906,-0.019531,0.003906
14404320000,0.999146,-0.033081,0.025574,-0.000793,0.003906,0.019531,0.042969
14416306000,0.999146,-0.033081,0.025574,-0.000793,0.003906,-0.019531,0.003906
14437980000,0.999146,-0.033081,0.025574,-0.000793,0.003906,0.097656,-0.035156
14461184000,0.999146,-0.033020,0.025513,-0.000793,0.039062,0.136719,0.003906
14477663000,0.999146,-0.033020,0.025513,-0.000793,0.003906,0.058594,0.042969
14498937000,0.999146,-0.033081,0.025574,-0.000793,0.003906,0.019531,0.035156
14518757000,0.999146,-0.033081,0.025574,-0.000793,0.003906,-0.019531,-0.042969
14536652000,0.999146,-0.033081,0.025513,-0.000793,0.003906,0.019531,-0.003906
14558756000,0.999146,-0.033081,0.025513,-0.000793,0.003906,-0.027344,0.035156
14585868000,0.999146,-0.033081,0.025513,-0.000793,0.003906,0.011719,-0.003906
14596988000,0.999146,-0.033081,0.025574,-0.000732,-0.035156,-0.140625,-0.042969
14617342000,0.999146,-0.033081,0.025513,-0.000732,0.003906,-0.019531,-0.003906
14638528000,0.999146,-0.033081,0.025513,-0.000732,0.003906,-0.019531,0.035156
14662073000,0.999146,-0.033020,0.025452,-0.000732,0.003906,0.019531,-0.003906
14680532000,0.999146,-0.032959,0.025452,-0.000732,0.003906,0.019531,-0.003906
14700666000,0.999146,-0.032959,0.025452,-0.000732,0.003906,-0.019531,-0.003906
14722297000,0.999146,-0.032959,0.025391,-0.000732,0.003906,0.019531,-0.003906
14741074000,0.999146,-0.032959,0.025391,-0.000732,-0.003906,0.019531,-0.003906
14770732000,0.999146,-0.032959,0.025452,-0.000732,0.003906,0.019531,0.035156
14786397000,0.999146,-0.033020,0.025452,-0.000732,0.003906,-0.019531,-0.003906
14800678000,0.999146,-0.033020,0.025452,-0.000732,-0.035156,-0.019531,-0.042969
14821210000,0.999146,-0.032959,0.025391,-0.000732,0.039062,-0.058594,-0.042969
14850498000,0.999146,-0.033020,0.025452,-0.000732,0.003906,-0.132812,0.035156
14860506000,0.999146,-0.032959,0.025391,-0.000732,0.039062,0.136719,-0.003906
14880234000,0.999146,-0.032959,0.025391,-0.000732,0.003906,-0.019531,0.003906
14909723000,0.999146,-0.032959,0.025391,-0.000732,-0.003906,-0.019531,0.003906
14920421000,0.999146,-0.032959,0.025391,-0.000732,-0.003906,-0.019531,0.003906
14940452000,0.999146,-0.032959,0.025391,-0.000732,0.003906,-0.019531,0.003906
14969951000,0.999146,-0.032959,0.025391,-0.000732,-0.003906,0.019531,0.042969
14981324000,0.999146,-0.032959,0.025391,-0.000732,-0.003906,0.019531,0.042969
14999778000,0.999146,-0.032898,0.025330,-0.000732,-0.003906,0.019531,0.042969
15020019000,0.999146,-0.032837,0.025330,-0.000732,-0.003906,-0.019531,-0.035156
15045688000,0.999146,-0.032898,0.025391,-0.000732,-0.003906,-0.066406,-0.035156
15060142000,0.999146,-0.032898,0.025391,-0.000732,0.039062,0.050781,0.042969
15082073000,0.999146,-0.032898,0.025391,-0.000732,-0.003906,-0.027344,-0.003906
15100640000,0.999146,-0.032837,0.025330,-0.000732,-0.003906,0.011719,-0.003906
15119683000,0.999146,-0.032837,0.025391,-0.000732,-0.003906,0.011719,-0.003906
15139369000,0.999146,-0.032898,0.025391,-0.000671,-0.003906,-0.027344,-0.003906
15169304000,0.999146,-0.032898,0.025391,-0.000732,-0.003906,0.011719,-0.003906
15179280000,0.999146,-0.032898,0.025391,-0.000671,-0.003906,-0.027344,-0.003906
15199702000,0.999146,-0.032837,0.025391,-0.000671,0.003906,-0.027344,-0.003906
15220329000,0.999146,-0.032837,0.025391,-0.000671,0.039062,0.011719,0.035156
15245559000,0.999146,-0.032837,0.025391,-0.000671,-0.003906,0.011719,-0.003906
15259614000,0.999146,-0.032837,0.025391,-0.000732,-0.003906,0.011719,-0.003906
15280055000,0.999146,-0.032898,0.025391,-0.000671,-0.003906,0.011719,-0.003906
15309001000,0.999146,-0.032837,0.025391,-0.000671,-0.003906,-0.027344,-0.003906
15325687000,0.999146,-0.032898,0.025391,-0.000671,-0.003906,0.011719,-0.003906
15338634000,0.999146,-0.032898,0.025391,-0.000671,-0.003906,0.011719,-0.003906
15359585000,0.999146,-0.032898,0.025391,-0.000671,-0.003906,0.019531,-0.003906
15391076000,0.999146,-0.032837,0.025330,-0.000671,-0.003906,-0.027344,0.035156
15398476000,0.999146,-0.032837,0.025330,-0.000671,-0.003906,0.011719,-0.003906
15419400000,0.999146,-0.033020,0.025330,-0.000427,0.261719,-0.140625,0.035156
15438742000,0.999084,-0.033813,0.025513,0.001038,0.906250,-0.308594,0.035156
15458947000,0.999084,-0.031738,0.028320,0.006348,2.093750,0.183594,0.570312
15479815000,0.999146,-0.027039,0.029602,0.011047,1.855469,0.847656,-3.109375
15498981000,0.999329,-0.022034,0.028442,0.009033,0.386719,-0.765625,-1.429688
15518408000,0.999390,-0.016235,0.029541,0.006042,-0.968750,0.511719,3.734375
15538906000,0.999451,-0.016052,0.028137,0.004517,0.410156,-0.585938,-3.660156
15569027000,0.999451,-0.016113,0.028320,0.004639,-0.832031,-0.156250,-1.207031
15578487000,0.999451,-0.015808,0.028687,0.004578,-0.687500,0.464844,0.324219
15598768000,0.999451,-0.015747,0.028625,0.004639,-0.566406,0.113281,-0.976562
15627829000,0.999451,-0.015686,0.028625,0.004761,-0.496094,0.160156,-0.097656
15637608000,0.999451,-0.015808,0.028564,0.004822,-0.312500,-0.031250,-0.058594
15658308000,0.999451,-0.015869,0.028564,0.005005,-0.042969,-0.109375,-0.058594
15678148000,0.999451,-0.015930,0.028503,0.005127,0.070312,0.007812,-0.019531
15707414000,0.999451,-0.015991,0.028564,0.005310,0.179688,0.042969,-0.097656
15724213000,0.999451,-0.015991,0.028503,0.005310,0.179688,0.050781,-0.210938
15738041000,0.999451,-0.015991,0.028442,0.005371,0.214844,0.128906,0.093750
15758144000,0.999451,-0.015930,0.028320,0.005127,0.207031,0.207031,0.054688
15777669000,0.999451,-0.015930,0.028259,0.004944,0.398438,-0.222656,0.093750
15800149000,0.999451,-0.015625,0.028198,0.004639,0.277344,0.015625,0.132812
15817810000,0.999512,-0.015564,0.027954,0.004028,0.007812,0.089844,-0.136719
15837885000,0.999512,-0.015503,0.027771,0.003662,-0.265625,-0.222656,0.019531
15857496000,0.999512,-0.015442,0.027649,0.003479,-0.230469,0.320312,0.093750
15878000000,0.999512,-0.015564,0.027466,0.003357,0.148438,0.089844,0.132812
15897263000,0.999512,-0.015686,0.027344,0.003357,0.031250,-0.140625,-0.097656
15917961000,0.999512,-0.015747,0.027222,0.003174,0.253906,0.089844,-0.175781
15947161000,0.999512,-0.015869,0.026978,0.002869,-0.023438,-0.332031,0.054688
15957134000,0.999512,-0.015808,0.026978,0.002808,-0.097656,-0.140625,0.171875
15977489000,0.999512,-0.015564,0.026733,0.002441,-0.136719,-0.140625,0.019531
16006892000,0.999512,-0.015564,0.026672,0.002197,-0.328125,-0.253906,0.210938
16016930000,0.999512,-0.015625,0.026611,0.002197,-0.144531,0.128906,-0.210938
16037206000,0.999512,-0.015686,0.026550,0.002258,-0.871094,-0.023438,0.132812
16058355000,0.999512,-0.015625,0.026489,0.002197,-0.460938,0.359375,-0.097656
16077055000,0.999512,-0.015808,0.026306,0.002075,-0.613281,0.089844,-0.175781
16097407000,0.999512,-0.015686,0.026123,0.001953,-0.074219,-0.015625,-0.058594
16117395000,0.999512,-0.015747,0.025940,0.001770,0.070312,0.089844,0.019531
16137204000,0.999573,-0.015625,0.025818,0.001587,-0.238281,-0.140625,0.054688
16157266000,0.999573,-0.015686,0.025635,0.001465,-0.550781,-0.023438,-0.019531
16185952000,0.999573,-0.015625,0.025574,0.001465,-0.820312,0.050781,-0.210938
16196401000,0.999573,-0.015625,0.025574,0.001465,-0.859375,0.089844,0.132812
16226433000,0.999573,-0.015625,0.025513,0.001404,-0.667969,0.050781,0.054688
16236330000,0.999573,-0.015625,0.025513,0.001404,-0.550781,0.015625,-0.019531
16257092000,0.999573,-0.015625,0.025513,0.001465,-0.089844,0.015625,-0.019531
16286125000,0.999573,-0.015625,0.025513,0.001465,-0.082031,0.015625,-0.019531
16296192000,0.999573,-0.015625,0.025513,0.001465,-0.121094,0.015625,0.027344
16317160000,0.999573,-0.015625,0.025513,0.001465,-0.121094,0.050781,-0.011719
16337253000,0.999573,-0.015625,0.025513,0.001465,-0.082031,0.015625,-0.011719
16356633000,0.999573,-0.015625,0.025513,0.001465,-0.121094,0.015625,0.027344
16377020000,0.999573,-0.015625,0.025513,0.001465,-0.082031,0.015625,-0.011719
16397052000,0.999573,-0.015564,0.025513,0.001465,-0.121094,-0.023438,-0.011719
16425984000,0.999573,-0.015625,0.025513,0.001465,-0.074219,0.015625,-0.050781
16436014000,0.999573,-0.015625,0.025513,0.001404,-0.074219,0.015625,-0.011719
16456686000,0.999573,-0.015564,0.025513,0.001404,-0.074219,0.015625,-0.011719
16485377000,0.999573,-0.015564,0.025513,0.001404,-0.074219,0.050781,-0.011719
16495435000,0.999573,-0.015564,0.025513,0.001404,-0.113281,0.050781,-0.011719
16525815000,0.999573,-0.015564,0.025513,0.001465,-0.074219,0.015625,-0.011719
16545776000,0.999573,-0.015564,0.025513,0.001404,-0.074219,0.015625,-0.011719
16555699000,0.999573,-0.015564,0.025513,0.001404,-0.113281,0.050781,-0.011719
16576623000,0.999573,-0.015625,0.025513,0.001404,-0.113281,0.015625,-0.011719
16605734000,0.999573,-0.015625,0.025513,0.001404,-0.011719,0.027344,-0.003906
16615334000,0.999573,-0.015625,0.025513,0.001404,0.027344,-0.007812,-0.003906
16636770000,0.999573,-0.015625,0.025513,0.001404,-0.011719,-0.007812,-0.003906
16656727000,0.999573,-0.015625,0.025513,0.001343,0.027344,0.027344,-0.003906
16680759000,0.999573,-0.015625,0.025513,0.001343,0.027344,-0.007812,-0.003906
16696336000,0.999573,-0.015625,0.025574,0.001343,-0.011719,-0.007812,0.035156
16716672000,0.999573,-0.015625,0.025574,0.001343,0.027344,-0.007812,-0.003906
16736791000,0.999573,-0.015625,0.025513,0.001343,0.027344,-0.007812,-0.003906
16764694000,0.999573,-0.015625,0.025513,0.001343,0.027344,-0.007812,0.035156
16775271000,0.999573,-0.015625,0.025513,0.001404,0.027344,0.027344,-0.003906
16796595000,0.999573,-0.015625,0.025574,0.001404,-0.011719,-0.007812,-0.003906
16817268000,0.999573,-0.015625,0.025574,0.001404,-0.011719,-0.007812,-0.003906
16845271000,0.999573,-0.015564,0.025574,0.001404,-0.011719,-0.007812,0.035156
16855513000,0.999573,-0.015564,0.025574,0.001404,-0.011719,-0.007812,0.035156
16876376000,0.999573,-0.015564,0.025574,0.001404,0.027344,-0.007812,0.035156
16904630000,0.999573,-0.015564,0.025635,0.001404,-0.011719,-0.007812,0.035156
16915306000,0.999573,-0.015564,0.025574,0.001404,0.027344,-0.007812,-0.042969
16944397000,0.999573,-0.015564,0.025574,0.001404,0.027344,-0.007812,-0.003906
16964509000,0.999573,-0.015564,0.025574,0.001343,-0.011719,0.027344,-0.003906
16984561000,0.999573,-0.015564,0.025574,0.001343,-0.011719,-0.007812,-0.003906
16995279000,0.999573,-0.015564,0.025574,0.001343,-0.011719,0.027344,-0.003906
17024219000,0.999573,-0.015564,0.025635,0.001343,0.027344,-0.007812,-0.003906
17044399000,0.999573,-0.015564,0.025635,0.001343,0.027344,-0.007812,-0.003906
17064410000,0.999573,-0.015503,0.025635,0.001404,-0.011719,-0.007812,-0.003906
17075205000,0.999573,-0.015503,0.025635,0.001404,0.027344,-0.007812,-0.003906
17104489000,0.999573,-0.015503,0.025635,0.001343,0.019531,-0.007812,-0.003906
17121101000,0.999573,-0.015503,0.025635,0.001343,0.019531,-0.007812,-0.003906
17149236000,0.999573,-0.015503,0.025635,0.001343,0.019531,-0.007812,0.035156
17163557000,0.999573,-0.015503,0.025635,0.001343,0.019531,-0.007812,0.035156
17184321000,0.999573,-0.015503,0.025635,0.001343,0.019531,-0.007812,-0.003906
17195309000,0.999573,-0.015503,0.025635,0.001343,0.019531,-0.007812,-0.003906
17223820000,0.999573,-0.015503,0.025635,0.001343,-0.019531,0.000000,-0.003906
17243386000,0.999573,-0.015503,0.025635,0.001343,-0.019531,0.000000,-0.003906
17264450000,0.999573,-0.015503,0.025635,0.001343,0.019531,0.000000,0.035156
17283553000,0.999573,-0.015503,0.025635,0.001343,0.019531,0.000000,0.035156
17304352000,0.999573,-0.015503,0.025635,0.001343,0.019531,0.000000,0.035156
17323951000,0.999573,-0.015503,0.025635,0.001343,0.019531,0.000000,-0.003906
17343356000,0.999573,-0.015442,0.025635,0.001343,0.011719,0.000000,0.035156
17365050000,0.999573,-0.015442,0.025635,0.001343,0.011719,0.000000,0.035156
17383291000,0.999573,-0.015442,0.025635,0.001343,0.011719,0.000000,0.027344
17403259000,0.999573,-0.015503,0.025635,0.001343,0.011719,0.000000,-0.011719
17423762000,0.999573,-0.015442,0.025635,0.001343,-0.027344,0.000000,-0.011719
17442832000,0.999573,-0.015442,0.025635,0.001343,0.011719,0.000000,0.027344
17463161000,0.999573,-0.015381,0.025635,0.001343,-0.027344,0.000000,-0.011719
17487121000,0.999573,-0.015381,0.025635,0.001343,0.011719,0.000000,-0.011719
17502817000,0.999573,-0.015381,0.025635,0.001343,-0.027344,0.000000,-0.011719
17523548000,0.999573,-0.015442,0.025635,0.001343,-0.027344,0.000000,-0.011719
17542914000,0.999573,-0.015442,0.025635,0.001343,-0.019531,0.000000,0.027344
17562737000,0.999573,-0.015442,0.025635,0.001343,-0.019531,0.000000,0.027344
17593117000,0.999573,-0.015381,0.025635,0.001343,-0.019531,0.000000,-0.011719
17602647000,0.999573,-0.015381,0.025635,0.001343,0.019531,0.000000,-0.003906
17623155000,0.999573,-0.015381,0.025635,0.001343,0.019531,0.000000,-0.003906
17643518000,0.999573,-0.015381,0.025635,0.001343,0.019531,0.000000,-0.003906
17668879000,0.999573,-0.015381,0.025635,0.001343,0.019531,0.000000,-0.003906
17682715000,0.999573,-0.015442,0.025635,0.001343,-0.019531,0.000000,0.035156
17704771000,0.999573,-0.015442,0.025635,0.001343,0.019531,0.000000,0.035156
17722269000,0.999573,-0.015442,0.025635,0.001343,0.019531,0.000000,-0.003906
17744748000,0.999573,-0.015442,0.025635,0.001343,-0.019531,0.000000,-0.003906
17765504000,0.999573,-0.015381,0.025635,0.001343,0.019531,0.000000,-0.003906
17782500000,0.999573,-0.015381,0.025635,0.001343,-0.019531,0.035156,0.035156
17801861000,0.999573,-0.015381,0.025635,0.001343,0.019531,0.000000,-0.003906
17827540000,0.999573,-0.015381,0.025635,0.001343,0.019531,0.027344,-0.003906
17841868000,0.999573,-0.015381,0.025635,0.001343,0.019531,-0.007812,-0.003906
17861661000,0.999573,-0.015381,0.025635,0.001343,0.019531,-0.007812,0.035156
17891887000,0.999573,-0.015381,0.025635,0.001343,-0.019531,-0.007812,-0.003906
17902288000,0.999573,-0.015381,0.025635,0.001343,0.019531,-0.007812,-0.003906
17921371000,0.999573,-0.015381,0.025635,0.001343,0.019531,-0.007812,-0.003906
17942339000,0.999573,-0.015381,0.025635,0.001343,0.019531,-0.007812,0.035156
17968636000,0.999573,-0.015381,0.025635,0.001343,-0.019531,-0.007812,-0.003906
17981370000,0.999573,-0.015381,0.025635,0.001343,0.019531,-0.007812,-0.003906
18001968000,0.999573,-0.015381,0.025635,0.001343,0.019531,0.027344,-0.003906
18024896000,0.999573,-0.015381,0.025635,0.001343,0.019531,-0.007812,-0.003906
18041520000,0.999573,-0.015381,0.025635,0.001343,0.019531,-0.007812,0.035156
18061368000,0.999573,-0.015381,0.025635,0.001343,0.019531,-0.007812,-0.003906
18086419000,0.999573,-0.015381,0.025635,0.001343,0.019531,-0.007812,-0.003906
18100951000,0.999573,-0.015381,0.025635,0.001343,0.019531,-0.007812,0.035156
18120989000,0.999573,-0.015381,0.025635,0.001343,0.019531,-0.007812,0.035156
18145894000,0.999573,-0.015381,0.025635,0.001343,0.019531,-0.007812,-0.003906
18160687000,0.999573,-0.015381,0.025635,0.001343,-0.019531,-0.007812,-0.003906
18181053000,0.999573,-0.015381,0.025635,0.001343,0.019531,-0.007812,-0.003906
18200754000,0.999573,-0.015381,0.025635,0.001343,0.011719,0.035156,0.035156
18220642000,0.999573,-0.015381,0.025635,0.001343,0.011719,-0.007812,-0.003906
18250551000,0.999573,-0.015381,0.025635,0.001343,0.011719,0.027344,-0.003906
18260872000,0.999573,-0.015381,0.025635,0.001343,0.011719,-0.007812,0.035156
18280424000,0.999573,-0.015381,0.025635,0.001343,-0.027344,-0.007812,0.035156
18302543000,0.999573,-0.015381,0.025635,0.001343,0.011719,-0.007812,0.035156
18320480000,0.999573,-0.015381,0.025635,0.001343,0.011719,-0.007812,-0.003906
18341027000,0.999573,-0.015381,0.025635,0.001343,0.011719,-0.007812,-0.003906
18367533000,0.999573,-0.015381,0.025635,0.001343,-0.027344,0.000000,-0.003906
18380027000,0.999573,-0.015381,0.025635,0.001343,0.011719,0.000000,0.035156
18400155000,0.999573,-0.015381,0.025635,0.001343,0.011719,0.000000,-0.003906
18430626000,0.999573,-0.015381,0.025635,0.001343,-0.019531,0.000000,-0.003906
18440757000,0.999573,-0.015381,0.025635,0.001343,-0.019531,0.000000,-0.003906
18462772000,0.999573,-0.015381,0.025635,0.001343,0.019531,0.035156,0.035156
18490005000,0.999573,-0.015381,0.025635,0.001343,0.019531,0.000000,-0.003906
18506151000,0.999573,-0.015381,0.025635,0.001343,0.019531,0.027344,-0.003906
18519605000,0.999573,-0.015381,0.025635,0.001343,0.019531,-0.007812,0.035156
18540100000,0.999573,-0.015381,0.025635,0.001343,-0.019531,0.027344,-0.003906
18559630000,0.999573,-0.015381,0.025635,0.001343,-0.019531,-0.007812,-0.003906
18579710000,0.999573,-0.015381,0.025635,0.001343,0.019531,-0.007812,0.035156
18603817000,0.999573,-0.015381,0.025635,0.001343,-0.019531,-0.007812,-0.003906
18619716000,0.999573,-0.015381,0.025635,0.001343,0.019531,-0.007812,-0.003906
18639599000,0.999573,-0.015381,0.025635,0.001343,0.019531,-0.007812,-0.003906
18660000000,0.999573,-0.015381,0.025635,0.001343,0.019531,-0.007812,-0.003906
18685199000,0.999573,-0.015381,0.025635,0.001343,0.019531,-0.007812,0.035156
18699856000,0.999573,-0.015381,0.025635,0.001343,0.019531,-0.007812,-0.003906
18719602000,0.999573,-0.015381,0.025635,0.001343,0.019531,-0.007812,-0.003906
18739128000,0.999573,-0.015381,0.025635,0.001343,0.019531,0.000000,-0.003906
18760176000,0.999573,-0.015381,0.025635,0.001343,0.019531,0.000000,0.035156
18790163000,0.999573,-0.015381,0.025635,0.001343,-0.019531,0.000000,-0.003906
18799277000,0.999573,-0.015381,0.025635,0.001343,-0.019531,0.000000,-0.003906
18819731000,0.999573,-0.015381,0.025635,0.001343,0.019531,0.000000,-0.003906
18849676000,0.999573,-0.015381,0.025635,0.001343,-0.019531,0.000000,-0.003906
18859413000,0.999573,-0.015381,0.025635,0.001343,0.019531,0.035156,-0.003906
18879093000,0.999573,-0.015381,0.025635,0.001343,-0.019531,0.000000,0.035156
18904205000,0.999573,-0.015381,0.025635,0.001343,-0.019531,0.035156,0.035156
18918767000,0.999573,-0.015381,0.025635,0.001343,-0.019531,-0.007812,-0.003906
18939026000,0.999573,-0.015381,0.025635,0.001343,0.019531,-0.007812,-0.003906
18968968000,0.999573,-0.015381,0.025635,0.001343,-0.019531,-0.007812,-0.003906
18984538000,0.999573,-0.015381,0.025635,0.001343,0.019531,-0.007812,-0.003906
18999168000,0.999573,-0.015381,0.025635,0.001343,0.019531,-0.007812,0.035156
19018396000,0.999573,-0.015381,0.025635,0.001343,0.054688,-0.007812,-0.003906
19038414000,0.999573,-0.015381,0.025635,0.001343,0.019531,-0.007812,-0.003906
19058304000,0.999573,-0.015381,0.025635,0.001343,-0.019531,-0.007812,-0.003906
19078751000,0.999573,-0.015381,0.025635,0.001343,0.019531,-0.007812,0.035156
19108698000,0.999573,-0.015381,0.025635,0.001343,-0.019531,-0.007812,-0.003906
19118236000,0.999573,-0.015381,0.025635,0.001343,0.019531,0.000000,-0.042969
19138487000,0.999573,-0.015381,0.025635,0.001343,-0.019531,0.000000,-0.042969
19164377000,0.999573,-0.015381,0.025635,0.001343,0.019531,0.000000,-0.003906
19180428000,0.999573,-0.015381,0.025635,0.001343,0.019531,0.000000,-0.003906
19198149000,0.999573,-0.015381,0.025635,0.001343,0.019531,-0.007812,-0.003906
19219309000,0.999573,-0.015381,0.025635,0.001343,-0.019531,-0.007812,-0.003906
19243979000,0.999573,-0.015381,0.025635,0.001343,0.019531,-0.007812,-0.003906
19257930000,0.999573,-0.015381,0.025635,0.001343,0.019531,-0.007812,0.003906
19278045000,0.999573,-0.015381,0.025635,0.001343,0.019531,-0.007812,0.003906
19309319000,0.999573,-0.015381,0.025635,0.001343,0.019531,-0.007812,0.003906
19317979000,0.999573,-0.015381,0.025635,0.001343,0.019531,-0.007812,0.003906
19338540000,0.999573,-0.015381,0.025635,0.001343,0.019531,0.027344,0.003906
19357716000,0.999573,-0.015381,0.025635,0.001343,0.019531,0.027344,0.042969
19387862000,0.999573,-0.015381,0.025635,0.001343,-0.019531,-0.007812,0.003906
19397927000,0.999573,-0.015381,0.025635,0.001343,0.019531,-0.007812,0.042969
19417885000,0.999573,-0.015381,0.025635,0.001343,0.019531,-0.007812,0.042969
19448217000,0.999573,-0.015381,0.025635,0.001343,-0.019531,-0.007812,-0.003906
19462458000,0.999573,-0.015381,0.025635,0.001343,-0.019531,-0.007812,-0.003906
19477854000,0.999573,-0.015381,0.025635,0.001343,-0.019531,-0.007812,-0.003906
19497526000,0.999573,-0.015381,0.025635,0.001343,0.019531,-0.007812,0.035156
19527215000,0.999573,-0.015381,0.025635,0.001343,-0.019531,-0.007812,-0.003906
19537412000,0.999573,-0.015381,0.025635,0.001343,0.019531,-0.007812,-0.003906
19557454000,0.999573,-0.015381,0.025635,0.001343,0.019531,-0.007812,-0.003906
19589741000,0.999573,-0.015381,0.025635,0.001343,0.019531,-0.007812,-0.003906
19597300000,0.999573,-0.015381,0.025635,0.001343,-0.019531,-0.007812,0.035156
19617269000,0.999573,-0.015381,0.025635,0.001343,0.019531,-0.007812,0.035156
19640565000,0.999573,-0.015381,0.025635,0.001343,0.019531,-0.007812,-0.003906
19657028000,0.999573,-0.015381,0.025635,0.001343,0.019531,-0.007812,-0.003906
19677269000,0.999573,-0.015381,0.025635,0.001343,-0.019531,0.000000,0.035156
19707456000,0.999573,-0.015381,0.025635,0.001343,-0.019531,0.000000,-0.011719
19717083000,0.999573,-0.015381,0.025635,0.001343,-0.019531,0.000000,-0.011719
19737472000,0.999573,-0.015381,0.025635,0.001343,0.019531,0.000000,-0.011719
19766567000,0.999573,-0.015381,0.025635,0.001343,0.019531,0.000000,-0.003906
19777063000,0.999573,-0.015381,0.025635,0.001343,-0.019531,0.000000,-0.003906
19797249000,0.999573,-0.015381,0.025635,0.001343,-0.019531,0.000000,0.035156
19823747000,0.999573,-0.015381,0.025635,0.001343,-0.019531,0.000000,-0.003906
19837094000,0.999573,-0.015381,0.025635,0.001343,0.019531,0.000000,0.035156
19857202000,0.999573,-0.015381,0.025635,0.001343,0.019531,0.000000,-0.003906
19886517000,0.999573,-0.015381,0.025635,0.001343,-0.019531,0.000000,-0.003906
19898161000,0.999573,-0.015381,0.025635,0.001343,-0.019531,0.000000,0.035156
19917287000,0.999573,-0.015381,0.025635,0.001343,0.019531,0.000000,0.035156
19946002000,0.999573,-0.015381,0.025635,0.001343,0.019531,0.000000,-0.011719
19956139000,0.999573,-0.015381,0.025635,0.001343,0.019531,0.000000,-0.011719
19985983000,0.999573,-0.015381,0.025635,0.001343,0.019531,0.000000,-0.011719
19998970000,0.999573,-0.015381,0.025635,0.001343,0.019531,0.000000,-0.011719
20026266000,0.999573,-0.015381,0.025635,0.001343,0.019531,0.000000,-0.011719
20041885000,0.999573,-0.015381,0.025635,0.001343,0.019531,0.000000,-0.011719
20056689000,0.999573,-0.015381,0.025635,0.001343,-0.019531,0.035156,0.027344
20076803000,0.999573,-0.015381,0.025635,0.001343,0.019531,0.000000,-0.011719
20105975000,0.999573,-0.015564,0.025696,0.001587,0.843750,0.113281,0.027344
20116195000,0.999573,-0.015625,0.025696,0.001709,0.875000,-0.039062,-0.042969
20136630000,0.999573,-0.015747,0.025696,0.002014,0.746094,-0.078125,0.109375
20165389000,0.999573,-0.015991,0.025452,0.002075,0.511719,0.121094,0.027344
20175511000,0.999573,-0.016113,0.025208,0.001953,0.289062,-0.183594,-0.011719
20197256000,0.999573,-0.015991,0.024841,0.001526,0.312500,0.281250,0.062500
20225801000,0.999573,-0.015930,0.024292,0.001099,-0.285156,0.000000,-0.011719
20235700000,0.999573,-0.015991,0.023987,0.001099,-0.515625,-0.386719,0.140625
20266092000,0.999634,-0.016174,0.022644,0.000427,-0.722656,-0.230469,-0.167969
20275354000,0.999634,-0.016296,0.021851,0.000183,-0.777344,0.191406,-0.128906
20296752000,0.999634,-0.016785,0.019836,-0.000671,-0.867188,0.351562,-0.082031
20323598000,0.999695,-0.016174,0.018738,-0.001831,-0.210938,0.281250,-0.695312
20336649000,0.999695,-0.015320,0.018066,-0.001343,-0.472656,-0.761719,-0.656250
20356886000,0.999695,-0.015381,0.017944,-0.000488,-0.324219,-0.890625,0.417969
20376315000,0.999695,-0.015320,0.017883,-0.000427,-0.480469,1.820312,-0.234375
20413276000,0.999695,-0.015198,0.017822,-0.000427,0.285156,0.066406,-0.082031
20424778000,0.999756,-0.015137,0.017822,-0.000427,0.242188,0.058594,0.035156
20441344000,0.999756,-0.014954,0.017700,-0.000427,0.585938,0.019531,-0.082031
20456464000,0.999756,-0.015015,0.017700,-0.000427,0.507812,-0.054688,-0.082031
20484707000,0.999756,-0.014893,0.017700,-0.000488,0.011719,0.058594,0.035156
20495293000,0.999756,-0.014893,0.017761,-0.000488,-0.066406,-0.023438,0.101562
20524724000,0.999756,-0.014771,0.017761,-0.000549,-0.140625,0.011719,0.140625
20541290000,0.999756,-0.014709,0.017761,-0.000549,-0.296875,-0.062500,0.101562
20569815000,0.999756,-0.014954,0.017761,-0.000610,-0.753906,0.011719,0.027344
20584578000,0.999756,-0.014832,0.017700,-0.000610,-0.910156,0.167969,0.179688
20607186000,0.999756,-0.014771,0.017700,-0.000610,-0.601562,0.050781,0.027344
20624270000,0.999756,-0.014771,0.017639,-0.000610,-0.562500,-0.023438,-0.128906
20647229000,0.999756,-0.014832,0.017639,-0.000610,-0.753906,0.089844,0.062500
20664341000,0.999756,-0.014832,0.017639,-0.000610,-0.371094,0.011719,0.062500
20684716000,0.999756,-0.014832,0.017639,-0.000610,-0.339844,-0.023438,-0.011719
20704406000,0.999756,-0.014954,0.017578,-0.000610,0.078125,-0.015625,0.027344
20733949000,0.999756,-0.014954,0.017639,-0.000610,0.691406,-0.054688,0.070312
20750939000,0.999756,-0.014954,0.017517,-0.000610,0.308594,0.058594,-0.011719
20764160000,0.999756,-0.014954,0.017639,-0.000610,0.507812,0.058594,0.140625
20784316000,0.999756,-0.014832,0.017578,-0.000671,-0.105469,0.019531,-0.011719
20804106000,0.999756,-0.014771,0.017578,-0.000671,-0.257812,0.011719,-0.089844
20828978000,0.999756,-0.014771,0.017578,-0.000671,-0.332031,0.011719,0.062500
20843909000,0.999756,-0.014771,0.017517,-0.000732,-0.640625,0.011719,0.062500
20864092000,0.999756,-0.014771,0.017578,-0.000732,-0.632812,-0.101562,-0.089844
20883621000,0.999756,-0.014954,0.017639,-0.000732,-0.257812,-0.023438,0.140625
20903897000,0.999756,-0.014832,0.017578,-0.000732,-0.488281,-0.093750,-0.050781
20923624000,0.999756,-0.014771,0.017517,-0.000732,-0.441406,-0.023438,-0.011719
20943502000,0.999756,-0.014832,0.017578,-0.000732,-0.132812,-0.023438,0.027344
20968897000,0.999756,-0.014893,0.017578,-0.000732,0.171875,0.050781,-0.011719
20983413000,0.999756,-0.014832,0.017578,-0.000732,-0.097656,0.058594,-0.011719
21003706000,0.999756,-0.014832,0.017578,-0.000671,-0.019531,-0.054688,-0.050781
21033247000,0.999756,-0.014832,0.017578,-0.000732,0.066406,-0.062500,0.062500
21050164000,0.999756,-0.014771,0.017578,-0.000732,0.066406,0.011719,0.027344
21063667000,0.999756,-0.014832,0.017517,-0.000793,0.066406,0.011719,-0.011719
21083119000,0.999756,-0.015015,0.017700,-0.000793,-0.203125,-0.054688,0.101562
21102531000,0.999756,-0.014832,0.017517,-0.000793,-0.617188,-0.054688,-0.089844
21128908000,0.999756,-0.014832,0.017517,-0.000854,-0.472656,-0.054688,-0.128906
21143025000,0.999756,-0.014832,0.017517,-0.000854,-0.164062,0.019531,0.140625
21163000000,0.999756,-0.014832,0.017456,-0.000854,-0.042969,0.011719,-0.089844
21192648000,0.999756,-0.015076,0.017517,-0.000854,-0.003906,0.097656,-0.050781
21203036000,0.999756,-0.015015,0.017578,-0.000854,-0.042969,-0.054688,0.027344
21222735000,0.999756,-0.014893,0.017395,-0.000916,-0.886719,0.019531,0.101562
21243546000,0.999756,-0.014893,0.017456,-0.000916,-0.769531,-0.015625,-0.050781
21263219000,0.999756,-0.014832,0.017456,-0.001038,-0.953125,-0.015625,-0.128906
21282783000,0.999756,-0.014832,0.017456,-0.001038,-0.800781,-0.015625,0.027344
21302517000,0.999756,-0.014832,0.017395,-0.001038,-0.148438,0.019531,0.027344
21323085000,0.999756,-0.014832,0.017395,-0.001038,-0.187500,-0.015625,0.027344
21342613000,0.999756,-0.014832,0.017395,-0.001038,-0.140625,-0.015625,0.027344
21362723000,0.999756,-0.014893,0.017456,-0.001038,-0.179688,-0.015625,-0.011719
21383695000,0.999756,-0.014893,0.017456,-0.001038,-0.179688,0.019531,-0.011719
21408833000,0.999756,-0.014893,0.017456,-0.001038,-0.132812,0.019531,0.027344
21430949000,0.999756,-0.014893,0.017456,-0.001099,-0.171875,0.019531,0.027344
21442493000,0.999756,-0.014832,0.017456,-0.001099,-0.171875,-0.015625,-0.011719
21462045000,0.999756,-0.014893,0.017456,-0.001099,-0.171875,-0.015625,-0.011719
21482043000,0.999756,-0.014832,0.017456,-0.001099,-0.125000,-0.015625,0.027344
21508885000,0.999756,-0.014832,0.017456,-0.001099,-0.164062,0.019531,-0.011719
21521773000,0.999756,-0.014771,0.017456,-0.001099,-0.164062,0.011719,-0.011719
21542278000,0.999756,-0.014771,0.017456,-0.001099,-0.164062,0.011719,-0.011719
21562772000,0.999756,-0.014832,0.017517,-0.001099,-0.164062,-0.023438,0.027344
21587471000,0.999756,-0.014771,0.017517,-0.001099,-0.195312,-0.023438,0.027344
21602417000,0.999756,-0.014771,0.017456,-0.001099,-0.156250,-0.023438,-0.011719
21622170000,0.999756,-0.014832,0.017456,-0.001099,-0.156250,0.011719,-0.011719
21642315000,0.999756,-0.014832,0.017456,-0.001099,0.031250,-0.007812,-0.011719
21665223000,0.999756,-0.014832,0.017456,-0.001099,-0.007812,-0.015625,-0.050781
21681897000,0.999756,-0.014771,0.017517,-0.001038,-0.007812,0.027344,-0.011719
21701897000,0.999756,-0.014771,0.017517,-0.001099,0.031250,-0.015625,0.027344
21724559000,0.999756,-0.014771,0.017517,-0.001099,-0.007812,-0.015625,-0.011719
21741742000,0.999756,-0.014771,0.017517,-0.001099,-0.007812,-0.015625,-0.011719
21761804000,0.999756,-0.014771,0.017517,-0.001099,-0.007812,0.019531,0.027344
21791588000,0.999756,-0.014709,0.017517,-0.001099,0.031250,0.019531,-0.011719
21807393000,0.999756,-0.014709,0.017517,-0.001099,0.031250,0.019531,-0.011719
21821674000,0.999756,-0.014709,0.017517,-0.001099,-0.007812,0.019531,-0.011719
21842255000,0.999756,-0.014771,0.017517,-0.001099,-0.015625,-0.015625,-0.011719
21865018000,0.999756,-0.014771,0.017517,-0.001160,-0.015625,-0.015625,0.027344
21881366000,0.999756,-0.014771,0.017517,-0.001099,-0.015625,-0.007812,-0.003906
21911461000,0.999756,-0.014771,0.017517,-0.001099,-0.015625,-0.015625,0.035156
21926826000,0.999756,-0.014771,0.017517,-0.001099,-0.007812,-0.015625,-0.003906
21943060000,0.999756,-0.014771,0.017517,-0.001099,-0.007812,-0.015625,-0.003906
21961303000,0.999756,-0.014771,0.017456,-0.001099,0.031250,-0.015625,-0.003906
21980610000,0.999756,-0.014771,0.017456,-0.001160,-0.007812,0.019531,-0.003906
22000778000,0.999756,-0.014771,0.017456,-0.001160,0.031250,-0.015625,-0.003906
22021726000,0.999756,-0.014771,0.017456,-0.001160,-0.007812,0.019531,0.035156
22049906000,0.999756,-0.014709,0.017456,-0.001160,-0.007812,0.019531,-0.003906
22057408000,0.999756,-0.014771,0.017456,-0.001160,-0.007812,0.019531,-0.003906
22079156000,0.999756,-0.014709,0.017456,-0.001160,-0.007812,-0.015625,0.035156
22100738000,0.999756,-0.014709,0.017456,-0.001160,-0.007812,-0.015625,-0.003906
22124514000,0.999756,-0.014709,0.017456,-0.001160,-0.007812,0.019531,-0.003906
22136302000,0.999756,-0.014709,0.017456,-0.001160,-0.007812,-0.015625,0.035156
22158071000,0.999756,-0.014709,0.017456,-0.001221,-0.007812,0.019531,0.035156
22177991000,0.999756,-0.014709,0.017456,-0.001221,-0.007812,0.011719,-0.011719
22203307000,0.999756,-0.014709,0.017456,-0.001221,-0.007812,-0.023438,-0.011719
22225370000,0.999756,-0.014709,0.017517,-0.001221,-0.007812,0.011719,-0.011719
22240014000,0.999756,-0.014709,0.017456,-0.001160,0.031250,0.011719,-0.011719
22260190000,0.999756,-0.014648,0.017456,-0.001221,0.031250,-0.023438,-0.011719
22280246000,0.999756,-0.014709,0.017456,-0.001221,-0.007812,-0.023438,0.027344
22309670000,0.999756,-0.014709,0.017456,-0.001221,-0.007812,-0.023438,-0.011719
22320256000,0.999756,-0.014709,0.017456,-0.001221,-0.007812,0.011719,0.027344
22339801000,0.999756,-0.014648,0.017456,-0.001221,0.031250,0.011719,0.027344
22359853000,0.999756,-0.014648,0.017456,-0.001221,0.031250,-0.023438,0.027344
22379889000,0.999756,-0.014648,0.017456,-0.001221,0.031250,-0.023438,-0.011719
22409684000,0.999756,-0.014648,0.017517,-0.001160,-0.015625,-0.023438,0.027344
22419403000,0.999756,-0.014648,0.017517,-0.001221,-0.015625,0.011719,-0.011719
22440675000,0.999756,-0.014648,0.017517,-0.001221,0.023438,-0.023438,-0.011719
22469466000,0.999756,-0.014648,0.017517,-0.001221,0.023438,-0.023438,-0.011719
22480100000,0.999756,-0.014648,0.017517,-0.001221,-0.015625,-0.023438,-0.050781
22499617000,0.999756,-0.014648,0.017517,-0.001221,-0.015625,0.011719,-0.011719
22519473000,0.999756,-0.014709,0.017517,-0.001221,-0.015625,0.011719,-0.011719
22548974000,0.999756,-0.014648,0.017517,-0.001221,-0.007812,0.011719,0.027344
22559747000,0.999756,-0.014648,0.017517,-0.001221,-0.007812,-0.023438,-0.011719
22579085000,0.999756,-0.014648,0.017517,-0.001221,-0.007812,-0.023438,-0.011719
22601466000,0.999756,-0.014648,0.017517,-0.001221,-0.007812,-0.023438,0.027344
22624826000,0.999756,-0.014648,0.017517,-0.001221,-0.007812,-0.023438,0.027344
22640894000,0.999756,-0.014648,0.017517,-0.001221,-0.007812,0.019531,-0.011719
22662159000,0.999756,-0.014648,0.017517,-0.001221,-0.007812,0.019531,0.027344
22679168000,0.999756,-0.014648,0.017517,-0.001221,0.031250,-0.015625,-0.011719
22698616000,0.999756,-0.014648,0.017517,-0.001221,-0.007812,0.019531,0.027344
22718433000,0.999756,-0.014648,0.017517,-0.001221,-0.007812,0.019531,-0.011719
22739975000,0.999756,-0.014648,0.017517,-0.001221,0.031250,0.019531,-0.011719
22758394000,0.999756,-0.014648,0.017517,-0.001221,0.031250,-0.015625,-0.011719
22778810000,0.999756,-0.014648,0.017517,-0.001221,-0.007812,0.019531,-0.011719
22798783000,0.999756,-0.014648,0.017517,-0.001221,-0.007812,-0.023438,0.027344
22818747000,0.999756,-0.014648,0.017517,-0.001221,0.031250,0.011719,-0.011719
22838191000,0.999756,-0.014648,0.017517,-0.001221,0.031250,0.011719,0.027344
22868878000,0.999756,-0.014648,0.017517,-0.001221,-0.015625,-0.023438,0.027344
22878189000,0.999756,-0.014648,0.017517,-0.001221,-0.015625,0.011719,-0.011719
22899817000,0.999756,-0.014648,0.017517,-0.001221,-0.015625,-0.023438,-0.011719
22927986000,0.999756,-0.014648,0.017517,-0.001221,-0.007812,0.011719,0.027344
22938271000,0.999756,-0.014648,0.017517,-0.001221,-0.007812,-0.023438,-0.011719
22958150000,0.999756,-0.014648,0.017517,-0.001221,0.031250,0.011719,-0.011719
22977864000,0.999756,-0.014648,0.017517,-0.001221,-0.007812,-0.015625,-0.011719
23003491000,0.999756,-0.014648,0.017517,-0.001221,-0.007812,-0.015625,-0.011719
23018334000,0.999756,-0.014648,0.017517,-0.001160,0.031250,-0.015625,-0.011719
23038486000,0.999756,-0.014648,0.017456,-0.001160,-0.007812,-0.015625,-0.011719
23058912000,0.999756,-0.014648,0.017456,-0.001160,0.031250,-0.015625,-0.011719
23083659000,0.999756,-0.014648,0.017456,-0.001221,-0.015625,0.019531,-0.011719
23097893000,0.999756,-0.014648,0.017456,-0.001160,-0.015625,-0.015625,-0.003906
23118270000,0.999756,-0.014587,0.017456,-0.001221,-0.007812,0.019531,-0.003906
23137613000,0.999756,-0.014587,0.017456,-0.001221,0.031250,-0.015625,-0.003906
23158382000,0.999756,-0.014587,0.017456,-0.001221,0.031250,0.019531,-0.003906
23187653000,0.999756,-0.014587,0.017517,-0.001221,-0.015625,0.019531,0.070312
23197912000,0.999756,-0.014587,0.017517,-0.001221,0.023438,0.019531,-0.003906
23217486000,0.999756,-0.014526,0.017456,-0.001221,-0.015625,-0.015625,-0.003906
23238158000,0.999756,-0.014526,0.017456,-0.001221,-0.015625,-0.015625,-0.003906
23267881000,0.999756,-0.014526,0.017517,-0.001221,-0.015625,-0.015625,0.035156
23277154000,0.999756,-0.014526,0.017456,-0.001221,-0.015625,0.019531,-0.003906
23297262000,0.999756,-0.014526,0.017456,-0.001221,0.023438,-0.015625,-0.003906
23317696000,0.999756,-0.014526,0.017456,-0.001221,-0.015625,0.019531,-0.003906
23347357000,0.999756,-0.014465,0.017456,-0.001221,-0.015625,-0.015625,-0.003906
23357275000,0.999756,-0.014465,0.017456,-0.001221,-0.015625,-0.015625,0.035156
23386849000,0.999756,-0.014465,0.017456,-0.001221,-0.015625,0.019531,-0.003906
23407565000,0.999756,-0.014465,0.017456,-0.001221,-0.007812,-0.015625,0.035156
23424297000,0.999756,-0.014465,0.017456,-0.001221,-0.007812,0.019531,-0.003906
23437390000,0.999756,-0.014465,0.017456,-0.001221,-0.007812,-0.015625,-0.003906
23457640000,0.999756,-0.014465,0.017456,-0.001221,-0.007812,0.019531,0.035156
23486525000,0.999756,-0.014526,0.017456,-0.001221,0.031250,0.019531,0.027344
23502832000,0.999756,-0.014526,0.017456,-0.001221,-0.007812,-0.015625,-0.011719
23517168000,0.999756,-0.014526,0.017456,-0.001221,-0.007812,-0.015625,-0.011719
23537312000,0.999756,-0.014526,0.017456,-0.001221,0.031250,-0.015625,0.027344
23566603000,0.999756,-0.014526,0.017456,-0.001221,-0.007812,0.019531,0.027344
23576677000,0.999756,-0.014587,0.017456,-0.001221,-0.007812,-0.015625,-0.011719
23597070000,0.999756,-0.014526,0.017456,-0.001221,-0.007812,-0.015625,0.027344
23626034000,0.999756,-0.014526,0.017456,-0.001221,0.031250,0.019531,-0.011719
23643202000,0.999756,-0.014587,0.017456,-0.001221,-0.007812,-0.015625,-0.011719
23662422000,0.999756,-0.014587,0.017456,-0.001221,0.031250,0.019531,-0.011719
23677715000,0.999756,-0.014587,0.017456,-0.001221,-0.015625,0.019531,-0.011719
23697264000,0.999756,-0.014587,0.017456,-0.001221,0.023438,-0.015625,0.027344
23716668000,0.999756,-0.014587,0.017456,-0.001221,-0.015625,0.019531,-0.011719
23737053000,0.999756,-0.014587,0.017456,-0.001221,-0.015625,0.019531,-0.011719
23765590000,0.999756,-0.014587,0.017456,-0.001282,0.023438,-0.015625,-0.011719
23775868000,0.999756,-0.014587,0.017456,-0.001282,-0.015625,-0.015625,-0.011719
23797518000,0.999756,-0.014587,0.017395,-0.001282,-0.015625,-0.015625,0.027344
23826110000,0.999756,-0.014526,0.017395,-0.001221,-0.015625,-0.015625,-0.011719
23836223000,0.999756,-0.014526,0.017395,-0.001221,-0.015625,0.019531,-0.011719
23865913000,0.999756,-0.014526,0.017456,-0.001282,-0.015625,0.019531,-0.011719
23875849000,0.999756,-0.014526,0.017456,-0.001282,0.023438,-0.015625,-0.011719
23901955000,0.999756,-0.014526,0.017456,-0.001221,0.023438,-0.015625,-0.011719
23916647000,0.999756,-0.014465,0.017456,-0.001221,-0.015625,-0.015625,0.027344
23936715000,0.999756,-0.014465,0.017456,-0.001282,-0.015625,0.019531,0.027344
23956290000,0.999756,-0.014465,0.017456,-0.001221,-0.015625,0.019531,0.027344
23976676000,0.999756,-0.014465,0.017456,-0.001221,-0.015625,-0.015625,-0.011719
24005307000,0.999756,-0.014465,0.017517,-0.001221,-0.007812,-0.015625,0.027344
24015349000,0.999756,-0.014465,0.017456,-0.001282,0.031250,-0.015625,-0.011719
24037121000,0.999756,-0.014465,0.017456,-0.001221,0.031250,0.019531,0.027344
24056242000,0.999756,-0.014465,0.017456,-0.001282,0.031250,-0.015625,-0.011719
24076364000,0.999756,-0.014465,0.017456,-0.001282,-0.007812,-0.015625,-0.011719
24104647000,0.999756,-0.014465,0.017456,-0.001282,-0.007812,0.019531,0.027344
24124729000,0.999756,-0.014465,0.017456,-0.001282,0.023438,-0.015625,-0.011719
24135266000,0.999756,-0.014465,0.017456,-0.001282,0.023438,-0.015625,-0.011719
24164822000,0.999756,-0.014465,0.017456,-0.001282,-0.015625,-0.015625,-0.011719
24175253000,0.999756,-0.014465,0.017456,-0.001282,-0.015625,-0.015625,0.027344
24204879000,0.999756,-0.014465,0.017456,-0.001282,-0.015625,-0.015625,0.027344
24224551000,0.999756,-0.014465,0.017456,-0.001282,-0.015625,-0.015625,0.027344
24235232000,0.999756,-0.014465,0.017456,-0.001282,0.023438,-0.015625,0.027344
24264786000,0.999756,-0.014465,0.017456,-0.001282,0.023438,-0.015625,-0.011719
24275192000,0.999756,-0.014465,0.017456,-0.001282,-0.015625,0.019531,-0.011719
24303950000,0.999756,-0.014465,0.017456,-0.001282,-0.007812,0.019531,0.027344
24315366000,0.999756,-0.014465,0.017456,-0.001282,-0.007812,0.019531,0.027344
24344391000,0.999756,-0.014465,0.017456,-0.001282,-0.007812,-0.015625,-0.011719
24364712000,0.999756,-0.014465,0.017456,-0.001282,-0.007812,0.019531,-0.011719
24383865000,0.999756,-0.014465,0.017456,-0.001282,-0.007812,0.019531,0.027344
24403712000,0.999756,-0.014465,0.017456,-0.001282,0.031250,0.019531,0.027344
24427543000,0.999756,-0.014465,0.017456,-0.001282,-0.007812,0.019531,0.027344
24435309000,0.999756,-0.014465,0.017456,-0.001282,0.031250,0.019531,0.027344
24464477000,0.999756,-0.014465,0.017456,-0.001282,-0.007812,-0.015625,0.027344
24475197000,0.999756,-0.014465,0.017456,-0.001282,-0.007812,0.019531,-0.011719
24505463000,0.999756,-0.014465,0.017456,-0.001282,-0.007812,-0.015625,-0.011719
24526443000,0.999756,-0.014465,0.017456,-0.001282,0.031250,-0.015625,-0.011719
24543533000,0.999756,-0.014465,0.017456,-0.001282,0.031250,0.019531,0.027344
24563767000,0.999756,-0.014465,0.017456,-0.001282,-0.007812,-0.015625,-0.011719
24589012000,0.999756,-0.014465,0.017456,-0.001282,-0.007812,0.019531,0.027344
24603283000,0.999756,-0.014465,0.017456,-0.001282,-0.007812,-0.015625,-0.011719
24623355000,0.999756,-0.014465,0.017456,-0.001282,0.031250,-0.015625,0.027344
24643012000,0.999756,-0.014465,0.017456,-0.001282,-0.007812,-0.015625,-0.011719
24665783000,0.999756,-0.014465,0.017456,-0.001282,-0.007812,0.019531,-0.011719
24682976000,0.999756,-0.014465,0.017456,-0.001282,-0.007812,0.019531,0.027344
24703011000,0.999756,-0.014465,0.017456,-0.001282,0.031250,-0.015625,-0.011719
24728162000,0.999756,-0.014465,0.017456,-0.001282,-0.007812,-0.015625,-0.011719
24742729000,0.999756,-0.014465,0.017456,-0.001282,-0.007812,0.019531,-0.011719
24769552000,0.999756,-0.014465,0.017456,-0.001282,-0.007812,0.019531,-0.011719
24783466000,0.999756,-0.014465,0.017456,-0.001282,-0.007812,0.011719,-0.011719
24803404000,0.999756,-0.014465,0.017456,-0.001282,-0.007812,0.011719,0.027344
24822978000,0.999756,-0.014465,0.017456,-0.001282,-0.007812,-0.023438,-0.011719
24843256000,0.999756,-0.014465,0.017456,-0.001282,0.031250,-0.023438,-0.011719
24865778000,0.999756,-0.014465,0.017456,-0.001282,0.031250,0.011719,0.027344
24883103000,0.999756,-0.014465,0.017456,-0.001282,-0.007812,-0.015625,-0.011719
24902747000,0.999756,-0.014465,0.017456,-0.001282,-0.007812,-0.015625,-0.011719
24928880000,0.999756,-0.014465,0.017456,-0.001282,-0.007812,-0.015625,0.027344
24943338000,0.999756,-0.014465,0.017456,-0.001282,-0.007812,-0.015625,-0.042969
24962556000,0.999756,-0.014465,0.017456,-0.001221,0.031250,-0.054688,-0.003906
24982834000,0.999756,-0.014465,0.017456,-0.001221,0.445312,-0.015625,0.035156
25002520000,0.999756,-0.014404,0.017456,-0.001160,0.464844,0.019531,-0.003906
25022101000,0.999756,-0.014648,0.017456,-0.001221,0.824219,0.019531,0.035156
25042012000,0.999756,-0.014526,0.017517,-0.001221,0.351562,-0.093750,0.035156
25062458000,0.999756,-0.014587,0.017456,-0.001221,0.273438,-0.093750,-0.234375
25081818000,0.999756,-0.014648,0.017456,-0.001282,0.343750,-0.054688,0.109375
25102653000,0.999756,-0.014771,0.017456,-0.001282,0.191406,-0.007812,0.035156
25123954000,0.999756,-0.014709,0.017456,-0.001282,0.105469,-0.046875,0.035156
25141668000,0.999756,-0.014832,0.017578,-0.001343,0.566406,0.066406,-0.003906
25161683000,0.999756,-0.014954,0.017639,-0.001343,-0.015625,-0.085938,-0.195312
25182057000,0.999756,-0.014954,0.017700,-0.001343,0.136719,0.027344,0.226562
25202674000,0.999756,-0.015015,0.017639,-0.001343,0.011719,0.066406,0.148438
25221459000,0.999756,-0.015198,0.017639,-0.001404,0.433594,0.027344,-0.082031
25241790000,0.999695,-0.015320,0.017761,-0.001404,0.511719,-0.078125,0.070312
25261475000,0.999756,-0.015198,0.017700,-0.001404,0.003906,0.035156,0.035156
25281342000,0.999756,-0.015320,0.017700,-0.001404,-0.148438,0.027344,0.253906
25301432000,0.999756,-0.015137,0.017700,-0.001465,-0.347656,-0.117188,0.332031
25324048000,0.999756,-0.015137,0.017517,-0.001526,-0.308594,0.183594,0.140625
25348509000,0.999756,-0.015198,0.017639,-0.001526,-1.035156,-0.046875,-0.050781
25361305000,0.999756,-0.015137,0.017517,-0.001526,-0.843750,0.066406,-0.167969
25383113000,0.999756,-0.014954,0.017517,-0.001587,-1.007812,-0.085938,-0.203125
25400993000,0.999756,-0.014954,0.017517,-0.001587,-0.890625,-0.046875,-0.242188
25420953000,0.999756,-0.014893,0.017517,-0.001587,-0.277344,0.027344,-0.089844
25441322000,0.999756,-0.015015,0.017517,-0.001587,0.066406,0.027344,-0.089844
25464439000,0.999756,-0.014893,0.017456,-0.001526,0.371094,0.066406,-0.011719
25481032000,0.999756,-0.014709,0.017395,-0.001587,0.335938,-0.046875,0.140625
25501237000,0.999756,-0.014648,0.017395,-0.001587,0.105469,0.058594,0.101562
25530796000,0.999756,-0.014832,0.017334,-0.001587,0.296875,0.191406,0.027344
25539168000,0.999756,-0.014648,0.017334,-0.001587,0.328125,-0.039062,0.062500
25557251000,0.999756,-0.014587,0.017395,-0.001648,0.058594,0.066406,-0.203125
25584207000,0.999756,-0.014587,0.017273,-0.001709,-0.515625,0.265625,0.140625
25596252000,0.999756,-0.014587,0.017212,-0.001709,-0.675781,-0.085938,-0.050781
25618382000,0.999756,-0.014648,0.017273,-0.001709,-0.906250,0.027344,-0.050781
25638479000,0.999756,-0.014771,0.017212,-0.001709,-0.601562,0.035156,-0.089844
25658652000,0.999756,-0.014709,0.017212,-0.001709,-0.484375,-0.007812,0.027344
25677182000,0.999756,-0.014587,0.017212,-0.001770,-0.515625,0.066406,0.027344
25698409000,0.999756,-0.014709,0.017212,-0.001770,0.289062,-0.117188,-0.050781
25726833000,0.999756,-0.014771,0.017212,-0.001770,0.250000,0.000000,-0.011719
25737321000,0.999756,-0.014771,0.017273,-0.001770,0.136719,0.000000,0.027344
25764143000,0.999756,-0.014954,0.017334,-0.001770,-0.054688,0.074219,0.027344
25776318000,0.999756,-0.014832,0.017273,-0.001831,-0.132812,-0.039062,-0.128906
25798323000,0.999756,-0.014893,0.017334,-0.001831,-0.707031,0.000000,-0.089844
25818544000,0.999756,-0.014832,0.017334,-0.001831,-0.593750,0.000000,0.027344
25839378000,0.999756,-0.014954,0.017395,-0.001831,-0.515625,0.000000,-0.011719
25858022000,0.999756,-0.014954,0.017334,-0.001831,-0.277344,0.000000,-0.011719
25877683000,0.999756,-0.014954,0.017334,-0.001831,-0.125000,0.000000,0.027344
25898131000,0.999756,-0.015015,0.017334,-0.001831,-0.085938,0.000000,0.027344
25917616000,0.999756,-0.015015,0.017334,-0.001831,-0.011719,0.000000,-0.011719
25943191000,0.999756,-0.015015,0.017334,-0.001770,0.179688,0.000000,0.027344
25959950000,0.999756,-0.015076,0.017273,-0.001831,0.218750,0.000000,-0.050781
25979604000,0.999756,-0.015198,0.017273,-0.001831,0.066406,0.000000,-0.011719
25999544000,0.999756,-0.015198,0.017273,-0.001831,-0.238281,0.035156,0.027344
26022031000,0.999756,-0.015198,0.017273,-0.001831,-0.433594,-0.031250,-0.050781
26039510000,0.999756,-0.015137,0.017212,-0.001831,-0.230469,0.000000,0.027344
26059781000,0.999756,-0.015137,0.017212,-0.001831,-0.269531,0.035156,-0.011719
26082498000,0.999756,-0.015076,0.017212,-0.001831,-0.117188,0.035156,-0.011719
26100109000,0.999756,-0.015137,0.017212,-0.001831,-0.117188,0.035156,-0.011719
26119878000,0.999756,-0.015137,0.017212,-0.001831,-0.117188,0.000000,-0.011719
26141714000,0.999756,-0.015137,0.017212,-0.001831,-0.078125,0.000000,0.027344
26159567000,0.999756,-0.015137,0.017273,-0.001892,-0.078125,-0.007812,0.027344
26178833000,0.999756,-0.015076,0.017273,-0.001892,-0.117188,-0.007812,-0.011719
26199119000,0.999756,-0.015076,0.017273,-0.001892,-0.109375,-0.007812,-0.011719
26230024000,0.999756,-0.015076,0.017273,-0.001892,-0.109375,0.027344,-0.011719
26239436000,0.999756,-0.015076,0.017273,-0.001892,-0.070312,-0.007812,0.027344
26259038000,0.999756,-0.015076,0.017273,-0.001892,-0.109375,-0.007812,-0.011719
26280279000,0.999756,-0.015076,0.017273,-0.001892,-0.109375,-0.007812,0.027344
26298719000,0.999756,-0.015076,0.017273,-0.001892,-0.109375,-0.007812,0.027344
26319267000,0.999756,-0.015076,0.017273,-0.001892,-0.109375,0.027344,-0.011719
26347792000,0.999756,-0.015076,0.017273,-0.001953,-0.101562,-0.007812,-0.011719
26358749000,0.999756,-0.015076,0.017212,-0.001953,0.023438,0.000000,0.027344
26379576000,0.999756,-0.015076,0.017273,-0.001953,0.023438,0.000000,-0.011719
26404077000,0.999756,-0.015015,0.017273,-0.001953,0.023438,0.000000,-0.011719
26419207000,0.999756,-0.015076,0.017273,-0.001953,0.023438,0.035156,0.027344
26438445000,0.999756,-0.015076,0.017334,-0.001953,0.054688,0.000000,0.027344
26464077000,0.999756,-0.015076,0.017334,-0.001953,0.015625,0.000000,-0.011719
26478911000,0.999756,-0.015137,0.017334,-0.001953,0.015625,0.000000,0.027344
26498732000,0.999756,-0.015137,0.017334,-0.001953,0.015625,0.000000,0.027344
26518087000,0.999756,-0.015137,0.017334,-0.001953,0.015625,0.000000,0.027344
26538475000,0.999756,-0.015137,0.017334,-0.001953,0.007812,0.035156,-0.011719
26565008000,0.999756,-0.015137,0.017334,-0.001953,0.007812,0.000000,0.027344
26578174000,0.999756,-0.015137,0.017334,-0.001953,0.007812,0.000000,0.027344
26598367000,0.999756,-0.015137,0.017334,-0.001892,0.007812,0.000000,0.027344
26618226000,0.999756,-0.015198,0.017334,-0.001892,0.046875,-0.007812,0.027344
26638346000,0.999756,-0.015137,0.017334,-0.001953,0.007812,-0.007812,0.027344
26668293000,0.999756,-0.015137,0.017334,-0.001953,0.000000,-0.007812,-0.019531
26678157000,0.999756,-0.015137,0.017334,-0.001953,0.000000,-0.007812,0.019531
26698103000,0.999756,-0.015137,0.017334,-0.001953,0.000000,-0.007812,-0.019531
26728429000,0.999756,-0.015137,0.017334,-0.001953,0.039062,-0.007812,0.019531
26737987000,0.999756,-0.015137,0.017334,-0.001953,0.000000,-0.007812,-0.019531
26759006000,0.999756,-0.015137,0.017334,-0.001953,0.000000,-0.007812,0.019531
26777913000,0.999756,-0.015137,0.017334,-0.002014,0.000000,-0.007812,-0.019531
26798065000,0.999756,-0.015076,0.017334,-0.002014,0.000000,-0.007812,0.027344
26823554000,0.999756,-0.015076,0.017334,-0.002014,-0.007812,-0.007812,0.027344
26837905000,0.999756,-0.015076,0.017334,-0.002014,-0.007812,-0.007812,0.027344
26860007000,0.999756,-0.015076,0.017395,-0.002014,-0.007812,-0.007812,0.027344
26887831000,0.999756,-0.015076,0.017395,-0.002014,-0.007812,-0.007812,0.019531
26897472000,0.999756,-0.015076,0.017395,-0.002014,-0.007812,-0.007812,0.019531
26917642000,0.999756,-0.015076,0.017395,-0.002014,0.031250,-0.007812,-0.019531
26948056000,0.999756,-0.015137,0.017395,-0.002014,-0.007812,-0.007812,-0.019531
26956988000,0.999756,-0.015137,0.017395,-0.002014,0.031250,-0.007812,0.019531
26977759000,0.999756,-0.015076,0.017395,-0.002014,-0.007812,-0.007812,0.019531
27003804000,0.999756,-0.015076,0.017395,-0.002014,-0.007812,-0.007812,-0.019531
27017537000,0.999756,-0.015076,0.017395,-0.002014,-0.007812,0.027344,0.019531
27037648000,0.999756,-0.015076,0.017456,-0.002014,-0.007812,-0.007812,-0.019531
27057487000,0.999756,-0.015015,0.017456,-0.002014,-0.007812,-0.007812,-0.019531
27079338000,0.999756,-0.015076,0.017456,-0.002014,0.031250,-0.007812,0.027344
27097183000,0.999756,-0.015076,0.017456,-0.002014,-0.007812,-0.007812,0.027344
27117413000,0.999756,-0.015015,0.017456,-0.002014,-0.007812,-0.007812,0.027344
27146679000,0.999756,-0.015076,0.017456,-0.002014,-0.007812,-0.007812,-0.011719
27156757000,0.999756,-0.015076,0.017456,-0.002014,-0.007812,-0.007812,-0.011719
27177307000,0.999756,-0.015076,0.017456,-0.002014,-0.007812,-0.007812,-0.011719
27207826000,0.999756,-0.015076,0.017456,-0.002014,-0.007812,-0.007812,-0.011719
27216794000,0.999756,-0.015076,0.017395,-0.002014,0.031250,-0.007812,0.027344
27237292000,0.999756,-0.015076,0.017395,-0.002014,-0.007812,-0.007812,-0.011719
27256779000,0.999756,-0.015076,0.017395,-0.002014,0.031250,-0.007812,0.027344
27276931000,0.999756,-0.015076,0.017456,-0.002014,0.031250,-0.007812,-0.050781
27297031000,0.999756,-0.015076,0.017456,-0.002014,-0.007812,-0.007812,-0.011719
27317310000,0.999756,-0.015137,0.017456,-0.002014,0.031250,-0.007812,0.027344
27346544000,0.999756,-0.015076,0.017456,-0.002014,-0.015625,0.027344,0.027344
27356401000,0.999756,-0.015137,0.017456,-0.002014,0.023438,-0.007812,0.027344
27377226000,0.999756,-0.015137,0.017456,-0.002014,-0.015625,-0.007812,0.027344
27406033000,0.999756,-0.015076,0.017456,-0.002014,0.023438,-0.007812,0.027344
27415944000,0.999756,-0.015076,0.017456,-0.002014,0.023438,-0.007812,-0.011719
27436650000,0.999756,-0.015076,0.017456,-0.002014,-0.015625,-0.007812,-0.011719
27456605000,0.999756,-0.015076,0.017456,-0.002014,0.023438,-0.007812,0.027344
27476904000,0.999756,-0.015076,0.017456,-0.002014,0.023438,-0.007812,0.027344
27502625000,0.999756,-0.015076,0.017456,-0.001953,-0.015625,-0.007812,-0.011719
27516623000,0.999756,-0.015076,0.017456,-0.001953,-0.015625,-0.007812,-0.011719
27536644000,0.999756,-0.015076,0.017456,-0.001953,-0.015625,-0.007812,0.027344
27566168000,0.999756,-0.015076,0.017456,-0.001953,-0.015625,0.027344,-0.011719
27585915000,0.999756,-0.015076,0.017456,-0.001953,-0.015625,-0.007812,-0.011719
27595355000,0.999756,-0.015076,0.017456,-0.001953,0.023438,-0.007812,-0.011719
27616238000,0.999756,-0.015137,0.017456,-0.001953,-0.015625,-0.007812,-0.011719
27636681000,0.999756,-0.015137,0.017456,-0.001953,-0.015625,-0.007812,-0.011719
27656691000,0.999756,-0.015137,0.017456,-0.001953,-0.015625,-0.007812,-0.011719
27678293000,0.999756,-0.015137,0.017517,-0.001953,-0.015625,-0.007812,-0.011719
27697185000,0.999756,-0.015076,0.017456,-0.001953,-0.015625,0.027344,-0.011719
27722086000,0.999756,-0.015076,0.017517,-0.002014,-0.015625,-0.007812,-0.011719
27737001000,0.999756,-0.015137,0.017456,-0.001953,0.023438,-0.007812,-0.011719
27756218000,0.999756,-0.015076,0.017456,-0.002014,-0.015625,-0.007812,-0.011719
27776645000,0.999756,-0.015076,0.017456,-0.002014,-0.015625,-0.007812,-0.011719
27796503000,0.999756,-0.015076,0.017456,-0.002014,-0.007812,0.027344,-0.011719
27816365000,0.999756,-0.015076,0.017456,-0.002014,-0.007812,-0.007812,-0.011719
27844995000,0.999756,-0.015137,0.017456,-0.002014,0.031250,-0.007812,-0.011719
27865274000,0.999756,-0.015076,0.017456,-0.002014,-0.007812,-0.007812,-0.011719
27875183000,0.999756,-0.015076,0.017517,-0.002014,0.031250,-0.007812,0.027344
27905170000,0.999756,-0.015137,0.017456,-0.002014,0.031250,-0.007812,-0.011719
27925232000,0.999756,-0.015137,0.017456,-0.002075,-0.015625,0.027344,-0.011719
27944528000,0.999756,-0.015137,0.017456,-0.002075,-0.007812,-0.007812,-0.011719
27955311000,0.999756,-0.015137,0.017456,-0.002075,0.031250,-0.007812,-0.011719
27986121000,0.999756,-0.015137,0.017456,-0.002075,-0.015625,0.027344,0.027344
28004462000,0.999756,-0.015137,0.017517,-0.002075,-0.015625,-0.007812,-0.011719
28026734000,0.999756,-0.015137,0.017517,-0.002075,-0.015625,-0.007812,-0.011719
28044341000,0.999756,-0.015137,0.017517,-0.002075,-0.015625,-0.015625,-0.011719
28064035000,0.999756,-0.015198,0.017517,-0.002075,0.023438,-0.015625,-0.011719
28084392000,0.999756,-0.015137,0.017517,-0.002075,0.023438,0.019531,-0.011719
28104508000,0.999756,-0.015137,0.017517,-0.002075,0.023438,-0.015625,0.027344
28123912000,0.999756,-0.015137,0.017517,-0.002075,0.023438,-0.007812,-0.011719
28144186000,0.999756,-0.015137,0.017517,-0.002075,0.023438,-0.007812,-0.011719
28163941000,0.999756,-0.015137,0.017517,-0.002075,-0.015625,-0.007812,-0.011719
28184480000,0.999756,-0.015137,0.017517,-0.002075,-0.015625,-0.007812,0.027344
28203883000,0.999756,-0.015137,0.017517,-0.002075,-0.015625,-0.007812,-0.011719
28224294000,0.999756,-0.015137,0.017456,-0.002075,-0.015625,-0.007812,-0.011719
28244369000,0.999756,-0.015137,0.017456,-0.002075,-0.015625,-0.007812,0.027344
28264787000,0.999756,-0.015137,0.017517,-0.002014,0.023438,0.027344,-0.011719
28284179000,0.999756,-0.015137,0.017456,-0.002014,-0.015625,-0.007812,-0.011719
28304484000,0.999756,-0.015198,0.017456,-0.002014,-0.015625,-0.007812,-0.011719
28323304000,0.999756,-0.015137,0.017456,-0.002014,-0.015625,-0.007812,-0.011719
28343990000,0.999756,-0.015137,0.017456,-0.002075,-0.015625,-0.007812,0.027344
28363641000,0.999756,-0.015137,0.017517,-0.002075,0.023438,-0.007812,-0.011719
28390370000,0.999756,-0.015137,0.017456,-0.002075,-0.015625,-0.007812,0.027344
28403300000,0.999756,-0.015137,0.017517,-0.002075,-0.015625,-0.007812,-0.011719
28428458000,0.999756,-0.015076,0.017517,-0.002075,-0.015625,-0.007812,-0.011719
28444120000,0.999756,-0.015076,0.017517,-0.002075,0.023438,-0.007812,-0.011719
28462852000,0.999756,-0.015076,0.017517,-0.002075,-0.015625,-0.007812,-0.011719
28483584000,0.999756,-0.015076,0.017517,-0.002075,-0.015625,-0.007812,0.027344
28508177000,0.999756,-0.015076,0.017517,-0.002075,0.023438,-0.007812,-0.011719
28523060000,0.999756,-0.015076,0.017517,-0.002075,0.023438,-0.007812,-0.011719
28546670000,0.999756,-0.015076,0.017517,-0.002075,0.023438,-0.007812,-0.011719
28563005000,0.999756,-0.015076,0.017517,-0.002075,-0.015625,-0.007812,-0.011719
28582618000,0.999756,-0.015076,0.017517,-0.002075,0.023438,-0.007812,-0.011719
28608506000,0.999756,-0.015076,0.017517,-0.002075,-0.015625,0.000000,-0.003906
28622693000,0.999756,-0.015076,0.017456,-0.002136,-0.015625,0.000000,-0.003906
28642943000,0.999756,-0.015076,0.017517,-0.002136,-0.015625,0.000000,-0.003906
28662733000,0.999756,-0.015076,0.017456,-0.002136,0.023438,0.000000,-0.003906
28682606000,0.999756,-0.015076,0.017456,-0.002136,0.023438,0.000000,-0.003906
28703233000,0.999756,-0.015076,0.017517,-0.002136,-0.015625,0.000000,0.035156
28722205000,0.999756,-0.015076,0.017517,-0.002136,-0.015625,-0.046875,-0.003906
28742852000,0.999756,-0.015015,0.017456,-0.002136,0.023438,-0.007812,-0.003906
28762937000,0.999756,-0.015015,0.017456,-0.002136,-0.015625,-0.007812,-0.003906
28782248000,0.999756,-0.015015,0.017456,-0.002136,0.023438,-0.007812,0.035156
28804726000,0.999756,-0.015015,0.017456,-0.002136,-0.015625,0.027344,0.035156
28831909000,0.999756,-0.015015,0.017456,-0.002075,-0.015625,0.027344,-0.003906
28841866000,0.999756,-0.015015,0.017456,-0.002075,-0.015625,-0.007812,0.035156
28862394000,0.999756,-0.015076,0.017456,-0.002075,-0.015625,-0.007812,-0.011719
28886271000,0.999756,-0.015015,0.017456,-0.002075,-0.015625,0.027344,-0.011719
28902294000,0.999756,-0.015015,0.017456,-0.002075,-0.015625,0.027344,-0.011719
28922297000,0.999756,-0.014954,0.017456,-0.002075,0.023438,-0.007812,0.027344
28942713000,0.999756,-0.014954,0.017456,-0.002136,-0.015625,-0.007812,-0.011719
28961911000,0.999756,-0.014954,0.017456,-0.002136,-0.015625,-0.007812,0.027344
28981965000,0.999756,-0.014954,0.017456,-0.002136,-0.015625,-0.007812,-0.011719
29002419000,0.999756,-0.015015,0.017456,-0.002136,-0.015625,-0.007812,-0.011719
29021623000,0.999756,-0.015015,0.017456,-0.002136,-0.015625,-0.007812,-0.011719
29041810000,0.999756,-0.015015,0.017456,-0.002136,-0.015625,-0.007812,-0.011719
29068133000,0.999756,-0.015015,0.017456,-0.002136,-0.015625,-0.007812,0.027344
29082192000,0.999756,-0.015015,0.017456,-0.002136,-0.007812,-0.007812,-0.050781
29101206000,0.999756,-0.015015,0.017456,-0.002136,-0.007812,-0.007812,0.027344
29131368000,0.999756,-0.015015,0.017517,-0.002136,-0.007812,-0.007812,-0.011719
29141716000,0.999756,-0.015015,0.017517,-0.002136,-0.007812,-0.007812,0.027344
29162678000,0.999756,-0.014954,0.017517,-0.002136,0.031250,-0.007812,0.027344
29181376000,0.999756,-0.014954,0.017517,-0.002136,-0.007812,-0.007812,-0.011719
29201419000,0.999756,-0.014954,0.017517,-0.002136,-0.007812,-0.007812,-0.011719
29221595000,0.999756,-0.014954,0.017517,-0.002136,0.031250,-0.007812,-0.011719
29246478000,0.999756,-0.014954,0.017517,-0.002136,-0.007812,-0.007812,-0.011719
29260782000,0.999756,-0.014893,0.017517,-0.002136,0.031250,-0.007812,-0.011719
29280852000,0.999756,-0.014893,0.017456,-0.002136,-0.007812,-0.007812,0.027344
29303898000,0.999756,-0.014893,0.017456,-0.002136,-0.007812,-0.007812,-0.011719
29320992000,0.999756,-0.014893,0.017456,-0.002136,-0.007812,-0.007812,-0.011719
29340917000,0.999756,-0.014893,0.017456,-0.002136,0.031250,-0.007812,0.062500
29360631000,0.999756,-0.014893,0.017456,-0.002136,-0.007812,0.000000,0.027344
29380547000,0.999756,-0.014893,0.017456,-0.002136,-0.007812,0.035156,-0.011719
29400480000,0.999756,-0.014893,0.017456,-0.002136,-0.007812,-0.007812,-0.011719
29420186000,0.999756,-0.014893,0.017456,-0.002136,-0.007812,-0.007812,-0.011719
29440728000,0.999756,-0.014893,0.017456,-0.002136,0.031250,-0.007812,0.027344
29464163000,0.999756,-0.014893,0.017456,-0.002075,-0.007812,0.027344,-0.011719
29480243000,0.999756,-0.014893,0.017456,-0.002075,-0.007812,-0.007812,-0.050781
29500571000,0.999756,-0.014893,0.017456,-0.002075,-0.007812,-0.007812,0.027344
29522880000,0.999756,-0.014954,0.017456,-0.002075,-0.007812,-0.046875,0.027344
29540481000,0.999756,-0.014954,0.017456,-0.002136,-0.007812,0.000000,-0.011719
29560305000,0.999756,-0.014954,0.017395,-0.002136,-0.007812,0.000000,-0.011719
29580805000,0.999756,-0.014954,0.017456,-0.002136,-0.007812,0.000000,0.027344
29606424000,0.999756,-0.014954,0.017456,-0.002136,-0.007812,0.000000,-0.011719
29619961000,0.999756,-0.014954,0.017395,-0.002075,0.031250,0.000000,-0.011719
29639834000,0.999756,-0.014954,0.017395,-0.002075,-0.007812,0.035156,-0.011719
29664647000,0.999756,-0.015015,0.017395,-0.002075,-0.007812,-0.007812,0.027344
29679784000,0.999756,-0.015076,0.017395,-0.002075,-0.007812,-0.007812,0.027344
29699968000,0.999756,-0.015076,0.017395,-0.002075,-0.007812,-0.007812,0.027344
29722582000,0.999756,-0.015137,0.017334,-0.002075,-0.007812,-0.007812,0.027344
29739893000,0.999756,-0.015198,0.017334,-0.002014,-0.007812,-0.007812,-0.011719
29769399000,0.999756,-0.015015,0.017273,-0.001953,1.468750,-0.007812,-0.011719
29779403000,0.999756,-0.015076,0.017395,-0.001953,1.585938,-0.007812,-0.011719
29799610000,0.999756,-0.015137,0.017517,-0.001953,1.234375,-0.007812,-0.089844
29829310000,0.999695,-0.015442,0.017578,-0.002014,0.726562,0.035156,-0.011719
29839938000,0.999756,-0.015259,0.017639,-0.002014,0.457031,-0.039062,-0.011719
29859481000,0.999756,-0.015015,0.017517,-0.002014,-0.382812,0.105469,-0.089844
29879923000,0.999756,-0.015015,0.017639,-0.002075,-0.699219,0.183594,0.062500
29909214000,0.999695,-0.015259,0.017822,-0.002075,-0.500000,0.183594,0.101562
29919970000,0.999756,-0.015015,0.017700,-0.002136,-0.699219,-0.191406,0.027344
29939131000,0.999756,-0.015015,0.017700,-0.002136,-0.554688,0.066406,-0.089844
29968613000,0.999695,-0.015259,0.017700,-0.002136,-0.324219,0.066406,-0.011719
29978742000,0.999756,-0.015259,0.017639,-0.002136,0.023438,-0.125000,-0.128906
29998834000,0.999756,-0.015259,0.017639,-0.002136,0.089844,-0.046875,0.027344
30019246000,0.999756,-0.015198,0.017700,-0.002136,0.320312,0.105469,-0.050781
30043687000,0.999695,-0.015381,0.017761,-0.002136,0.472656,0.074219,0.027344
30059574000,0.999695,-0.015503,0.017822,-0.002197,0.664062,-0.078125,0.218750
30078412000,0.999695,-0.015381,0.017700,-0.002197,0.351562,0.113281,-0.050781
30099278000,0.999756,-0.015198,0.017700,-0.002258,0.390625,0.113281,0.140625
30118547000,0.999695,-0.015320,0.017700,-0.002258,-0.605469,0.066406,0.027344
30140127000,0.999695,-0.015320,0.017761,-0.002319,-0.570312,-0.078125,-0.359375
30165355000,0.999695,-0.015442,0.017883,-0.002319,-0.769531,0.074219,0.140625
30178381000,0.999695,-0.015442,0.017883,-0.002380,-0.960938,0.035156,0.027344
30204671000,0.999695,-0.015564,0.017883,-0.002380,-1.152344,-0.039062,0.062500
30218227000,0.999695,-0.015564,0.017883,-0.002380,-0.730469,-0.039062,0.027344
30248597000,0.999695,-0.015564,0.017883,-0.002380,-0.308594,-0.039062,0.054688
30258040000,0.999695,-0.015564,0.017883,-0.002380,-0.191406,0.000000,-0.058594
30288616000,0.999695,-0.015503,0.017822,-0.002380,0.304688,0.000000,-0.058594
30297930000,0.999695,-0.015503,0.017822,-0.002380,-0.078125,0.000000,0.054688
30318779000,0.999695,-0.015503,0.017822,-0.002380,-0.078125,0.035156,-0.019531
30345308000,0.999695,-0.015503,0.017761,-0.002380,0.074219,0.074219,-0.019531
30358364000,0.999695,-0.015320,0.017700,-0.002380,0.382812,0.000000,-0.019531
30378021000,0.999756,-0.015198,0.017700,-0.002380,0.417969,-0.007812,-0.019531
30398411000,0.999756,-0.015076,0.017639,-0.002380,0.074219,-0.046875,-0.058594
30423454000,0.999695,-0.015259,0.017761,-0.002380,-0.191406,-0.007812,-0.097656
30438066000,0.999695,-0.015259,0.017761,-0.002441,0.000000,-0.007812,-0.058594
30467425000,0.999695,-0.015320,0.017822,-0.002441,-0.386719,0.183594,-0.136719
30478061000,0.999695,-0.015381,0.017822,-0.002441,0.000000,-0.199219,-0.019531
30498471000,0.999695,-0.015381,0.017761,-0.002441,-0.460938,0.000000,0.019531
30517937000,0.999695,-0.015320,0.017700,-0.002441,-0.191406,-0.039062,-0.019531
30537529000,0.999695,-0.015442,0.017761,-0.002441,-0.191406,0.000000,0.019531
30567112000,0.999695,-0.015320,0.017761,-0.002441,0.035156,-0.085938,0.054688
30577685000,0.999695,-0.015137,0.017761,-0.002502,0.000000,-0.007812,-0.097656
30597735000,0.999756,-0.014893,0.017700,-0.002441,-0.156250,0.027344,-0.136719
30617344000,0.999756,-0.015198,0.017578,-0.002441,0.035156,0.027344,-0.019531
30648987000,0.999756,-0.015076,0.017517,-0.002502,0.457031,0.027344,0.019531
30657479000,0.999756,-0.015015,0.017517,-0.002502,0.113281,-0.046875,-0.019531
30677105000,0.999756,-0.014954,0.017517,-0.002502,-0.769531,-0.007812,-0.097656
30698293000,0.999756,-0.015198,0.017578,-0.002502,-0.500000,-0.125000,0.246094
30726593000,0.999756,-0.015320,0.017517,-0.002563,-0.578125,-0.007812,-0.097656
30737406000,0.999756,-0.015320,0.017517,-0.002563,-0.613281,0.000000,-0.019531
30757598000,0.999756,-0.015320,0.017517,-0.002563,-0.039062,0.000000,-0.019531
30777644000,0.999756,-0.015320,0.017517,-0.002563,-0.078125,0.035156,-0.019531
30807386000,0.999756,-0.015320,0.017578,-0.002563,-0.039062,0.000000,0.019531
30817224000,0.999756,-0.015259,0.017578,-0.002563,-0.078125,0.000000,-0.019531
30837349000,0.999695,-0.015259,0.017578,-0.002563,-0.078125,0.027344,-0.019531
30857402000,0.999695,-0.015259,0.017639,-0.002563,-0.070312,-0.007812,0.019531
30887054000,0.999695,-0.015259,0.017639,-0.002563,-0.070312,0.027344,0.019531
30896482000,0.999695,-0.015259,0.017639,-0.002563,-0.070312,-0.007812,-0.058594
30917442000,0.999695,-0.015259,0.017639,-0.002563,-0.031250,-0.007812,-0.019531
30942745000,0.999695,-0.015259,0.017639,-0.002563,-0.070312,-0.007812,0.019531
30966642000,0.999695,-0.015259,0.017639,-0.002563,-0.070312,0.027344,-0.019531
30976400000,0.999695,-0.015259,0.017639,-0.002563,-0.031250,-0.007812,0.019531
30997107000,0.999695,-0.015259,0.017639,-0.002625,-0.070312,0.027344,-0.019531
31017209000,0.999695,-0.015259,0.017639,-0.002625,-0.070312,0.027344,0.019531
31046265000,0.999756,-0.015198,0.017639,-0.002686,-0.031250,-0.007812,0.019531
31064667000,0.999695,-0.015198,0.017639,-0.002686,-0.062500,-0.007812,0.019531
31076661000,0.999695,-0.015259,0.017639,-0.002686,-0.062500,-0.007812,0.019531
31096964000,0.999695,-0.015259,0.017639,-0.002686,-0.007812,-0.007812,-0.011719
31117237000,0.999756,-0.015259,0.017639,-0.002686,-0.007812,-0.007812,0.027344
31142686000,0.999756,-0.015259,0.017578,-0.002625,-0.007812,-0.007812,-0.011719
31156762000,0.999756,-0.015259,0.017578,-0.002625,-0.007812,-0.007812,0.027344
31176672000,0.999695,-0.015259,0.017578,-0.002625,-0.007812,-0.007812,0.027344
31205880000,0.999695,-0.015320,0.017578,-0.002625,-0.007812,0.000000,0.027344
31225741000,0.999695,-0.015320,0.017578,-0.002625,-0.007812,0.000000,0.027344
31235333000,0.999695,-0.015320,0.017578,-0.002625,-0.007812,0.000000,-0.011719
31256775000,0.999695,-0.015320,0.017578,-0.002625,-0.007812,0.000000,-0.011719
31285929000,0.999695,-0.015381,0.017578,-0.002625,-0.007812,0.000000,-0.011719
31302578000,0.999695,-0.015381,0.017578,-0.002625,-0.007812,0.000000,-0.011719
31316205000,0.999695,-0.015320,0.017578,-0.002625,-0.007812,0.000000,0.027344
31336625000,0.999695,-0.015320,0.017578,-0.002625,-0.007812,0.035156,-0.011719
31356629000,0.999695,-0.015320,0.017578,-0.002625,-0.007812,0.000000,-0.011719
31376476000,0.999695,-0.015320,0.017578,-0.002625,0.031250,0.000000,0.027344
31396689000,0.999695,-0.015320,0.017578,-0.002625,-0.007812,0.035156,0.027344
31424957000,0.999695,-0.015320,0.017578,-0.002625,0.031250,0.000000,-0.011719
31435294000,0.999695,-0.015381,0.017578,-0.002625,-0.007812,0.000000,0.027344
31456665000,0.999695,-0.015381,0.017578,-0.002625,0.031250,0.000000,-0.011719
31484962000,0.999695,-0.015320,0.017639,-0.002625,-0.007812,0.000000,0.027344
31495242000,0.999695,-0.015381,0.017639,-0.002625,-0.007812,0.000000,0.027344
31524733000,0.999695,-0.015320,0.017639,-0.002625,0.031250,0.000000,-0.011719
31535316000,0.999695,-0.015381,0.017639,-0.002625,-0.007812,0.000000,0.027344
31565218000,0.999695,-0.015381,0.017578,-0.002625,-0.007812,0.035156,-0.011719
31585087000,0.999695,-0.015381,0.017578,-0.002625,-0.007812,0.000000,-0.011719
31595203000,0.999695,-0.015381,0.017578,-0.002625,-0.007812,0.000000,0.027344
31624739000,0.999695,-0.015320,0.017639,-0.002625,0.031250,0.000000,-0.011719
31635251000,0.999695,-0.015320,0.017639,-0.002686,0.031250,0.000000,-0.011719
31667240000,0.999695,-0.015320,0.017639,-0.002686,0.031250,0.000000,0.027344
31684723000,0.999695,-0.015320,0.017639,-0.002686,-0.015625,0.000000,-0.011719
31695081000,0.999695,-0.015320,0.017639,-0.002686,0.023438,0.000000,0.027344
31716660000,0.999695,-0.015259,0.017639,-0.002686,-0.015625,0.000000,0.027344
31744408000,0.999695,-0.015259,0.017639,-0.002686,0.023438,0.035156,0.027344
31764076000,0.999695,-0.015259,0.017578,-0.002686,-0.015625,0.035156,0.027344
31784280000,0.999695,-0.015259,0.017578,-0.002686,-0.015625,-0.007812,-0.011719
31795354000,0.999695,-0.015259,0.017578,-0.002686,-0.015625,-0.007812,0.027344
31823961000,0.999756,-0.015259,0.017578,-0.002686,-0.015625,-0.007812,-0.011719
31843708000,0.999756,-0.015259,0.017578,-0.002686,-0.015625,-0.007812,-0.011719
31870295000,0.999756,-0.015259,0.017578,-0.002625,0.023438,-0.007812,0.027344
31883418000,0.999695,-0.015320,0.017578,-0.002625,-0.015625,0.000000,-0.011719
31904169000,0.999695,-0.015320,0.017517,-0.002625,-0.015625,0.000000,0.027344
31923395000,0.999695,-0.015320,0.017517,-0.002625,-0.015625,0.000000,-0.011719
31935313000,0.999695,-0.015320,0.017517,-0.002625,-0.007812,0.000000,-0.011719
31963763000,0.999695,-0.015320,0.017517,-0.002625,-0.007812,0.000000,-0.011719
31986859000,0.999756,-0.015320,0.017578,-0.002686,0.031250,0.000000,0.027344
32003953000,0.999695,-0.015320,0.017517,-0.002686,-0.007812,0.000000,0.027344
32023226000,0.999695,-0.015320,0.017578,-0.002686,0.031250,0.000000,0.027344
32043649000,0.999695,-0.015320,0.017578,-0.002686,0.031250,0.000000,-0.011719
32063155000,0.999695,-0.015320,0.017578,-0.002686,0.031250,0.000000,0.027344
32084016000,0.999695,-0.015320,0.017578,-0.002625,-0.007812,0.000000,-0.011719
32109436000,0.999695,-0.015259,0.017578,-0.002686,-0.007812,0.035156,0.027344
32123627000,0.999756,-0.015259,0.017578,-0.002625,-0.007812,0.000000,0.027344
32148509000,0.999756,-0.015259,0.017578,-0.002625,-0.007812,-0.007812,0.027344
32163413000,0.999756,-0.015259,0.017578,-0.002625,-0.007812,0.027344,-0.011719
32185565000,0.999756,-0.015259,0.017578,-0.002625,0.031250,-0.007812,-0.011719
32208761000,0.999756,-0.015198,0.017578,-0.002625,0.031250,-0.007812,0.027344
32223385000,0.999756,-0.015198,0.017578,-0.002625,0.023438,-0.007812,-0.011719
32243540000,0.999756,-0.015259,0.017578,-0.002625,-0.015625,-0.007812,-0.011719
32268685000,0.999756,-0.015259,0.017578,-0.002625,-0.015625,0.027344,0.027344
32283313000,0.999756,-0.015259,0.017578,-0.002625,-0.015625,-0.007812,-0.011719
32305316000,0.999756,-0.015259,0.017578,-0.002625,0.023438,-0.007812,0.027344
32323053000,0.999756,-0.015198,0.017578,-0.002625,-0.015625,-0.007812,-0.011719
32342473000,0.999756,-0.015198,0.017578,-0.002625,-0.015625,-0.007812,-0.011719
32362376000,0.999756,-0.015198,0.017578,-0.002625,-0.015625,-0.007812,-0.011719
32383176000,0.999756,-0.015198,0.017578,-0.002625,-0.015625,-0.007812,-0.011719
32406217000,0.999756,-0.015198,0.017639,-0.002625,-0.015625,0.027344,-0.011719
32422891000,0.999756,-0.015198,0.017639,-0.002625,-0.015625,-0.007812,-0.011719
32447644000,0.999756,-0.015198,0.017639,-0.002625,0.031250,-0.007812,0.027344
32462424000,0.999756,-0.015259,0.017639,-0.002625,-0.007812,-0.007812,-0.011719
32482423000,0.999695,-0.015259,0.017639,-0.002625,-0.007812,-0.007812,0.035156
32502264000,0.999695,-0.015259,0.017639,-0.002625,0.031250,-0.007812,-0.003906
32521861000,0.999695,-0.015259,0.017639,-0.002625,-0.007812,-0.007812,0.035156
32546285000,0.999695,-0.015320,0.017639,-0.002686,-0.007812,0.000000,0.035156
32562150000,0.999695,-0.015320,0.017639,-0.002686,-0.007812,0.000000,0.035156
32582408000,0.999695,-0.015320,0.017639,-0.002686,0.031250,0.000000,-0.011719
32608667000,0.999695,-0.015259,0.017639,-0.002686,-0.015625,0.035156,0.027344
32621964000,0.999695,-0.015259,0.017639,-0.002686,0.023438,0.000000,-0.011719
32641698000,0.999695,-0.015259,0.017639,-0.002686,-0.015625,-0.007812,0.027344
32661479000,0.999695,-0.015259,0.017578,-0.002686,-0.015625,0.027344,0.027344
32681476000,0.999695,-0.015259,0.017578,-0.002686,-0.015625,-0.007812,0.027344
32701722000,0.999756,-0.015198,0.017578,-0.002686,-0.015625,-0.007812,0.027344
32725479000,0.999756,-0.015198,0.017639,-0.002686,0.023438,0.027344,0.027344
32741702000,0.999756,-0.015198,0.017578,-0.002686,-0.015625,-0.007812,-0.011719
32761460000,0.999756,-0.015198,0.017578,-0.002686,-0.015625,-0.007812,-0.011719
32783676000,0.999756,-0.015198,0.017578,-0.002686,0.023438,-0.007812,-0.011719
32808054000,0.999756,-0.015198,0.017578,-0.002686,-0.015625,-0.007812,-0.011719
32821045000,0.999756,-0.015198,0.017578,-0.002686,-0.015625,0.027344,-0.011719
32841186000,0.999756,-0.015198,0.017578,-0.002686,-0.015625,-0.007812,0.027344
32870999000,0.999756,-0.015198,0.017578,-0.002686,-0.015625,-0.007812,-0.011719
32886909000,0.999756,-0.015198,0.017578,-0.002686,-0.015625,-0.007812,0.027344
32900929000,0.999756,-0.015198,0.017578,-0.002686,-0.015625,-0.007812,0.027344
32921372000,0.999756,-0.015198,0.017578,-0.002686,-0.015625,-0.007812,0.062500
32941331000,0.999756,-0.015198,0.017578,-0.002686,0.023438,0.027344,-0.011719
32961157000,0.999756,-0.015198,0.017578,-0.002686,-0.015625,-0.007812,0.027344
32980542000,0.999756,-0.015137,0.017578,-0.002686,0.023438,0.027344,0.027344
33003128000,0.999756,-0.015137,0.017578,-0.002686,-0.015625,-0.007812,-0.011719
33025809000,0.999756,-0.015137,0.017578,-0.002686,-0.015625,-0.007812,-0.011719
33040696000,0.999756,-0.015137,0.017578,-0.002686,-0.015625,-0.007812,-0.011719
33062696000,0.999756,-0.015137,0.017578,-0.002686,0.023438,-0.007812,0.027344
33079976000,0.999756,-0.015137,0.017578,-0.002686,-0.015625,-0.007812,0.027344
33100233000,0.999756,-0.015137,0.017578,-0.002686,-0.015625,-0.007812,-0.011719
33120116000,0.999756,-0.015137,0.017578,-0.002686,-0.015625,0.027344,-0.011719
33142987000,0.999756,-0.015137,0.017578,-0.002686,-0.007812,-0.007812,-0.011719
33160572000,0.999756,-0.015137,0.017578,-0.002686,0.031250,-0.007812,0.027344
