timestamp_ns,qw,qx,qy,qz,ax,ay,az,t_sec,dist_83a8d,dist_e05a1,dist_48e72
2573489000,0.999146,-0.033142,0.025574,-0.000854,0.003906,-0.003906,0.011719,0.0,,,
2594286000,0.999146,-0.033081,0.025574,-0.000854,0.039062,-0.003906,-0.027344,0.020797,,,
2603194000,0.999146,-0.033081,0.025635,-0.000854,0.003906,-0.003906,-0.027344,0.029705,,,
2613582000,0.999146,-0.033081,0.025635,-0.000854,0.003906,-0.003906,0.011719,0.040093,,,
2623942000,0.999146,-0.033081,0.025635,-0.000854,-0.035156,-0.003906,-0.027344,0.050453,,,
2635356000,0.999146,-0.033081,0.025635,-0.000854,0.003906,-0.003906,-0.027344,0.061867,,,
2643642000,0.999146,-0.033081,0.025635,-0.000854,0.003906,-0.003906,-0.027344,0.070153,,,
2653648000,0.999146,-0.033081,0.025635,-0.000854,0.003906,-0.003906,-0.027344,0.080159,,,
2663728000,0.999146,-0.033081,0.025635,-0.000854,0.003906,-0.003906,-0.019531,0.090239,,,
2673774000,0.999146,-0.033081,0.025635,-0.000854,0.003906,-0.003906,-0.019531,0.100285,,,
2683224000,0.999146,-0.03302,0.025635,-0.000916,0.003906,-0.003906,0.019531,0.109735,,,
2693774000,0.999146,-0.033081,0.025635,-0.000916,0.003906,-0.003906,-0.019531,0.120285,,,
2704050000,0.999146,-0.033081,0.025635,-0.000916,0.003906,-0.003906,-0.019531,0.130561,,,
2722784000,0.999146,-0.03302,0.025635,-0.000916,0.003906,0.035156,0.019531,0.149295,,,
2743453000,0.999146,-0.03302,0.025635,-0.000916,0.003906,-0.003906,-0.019531,0.169964,,,
2763187000,0.999146,-0.03302,0.025635,-0.000916,0.003906,-0.003906,-0.011719,0.189698,,,
2783458000,0.999146,-0.033081,0.025635,-0.000916,0.003906,-0.003906,-0.011719,0.209969,,,
2802721000,0.999146,-0.033081,0.025635,-0.000916,0.003906,-0.003906,-0.011719,0.229232,,,
2828098000,0.999146,-0.033081,0.025635,-0.000916,0.003906,0.035156,0.027344,0.254609,,,
2842957000,0.999146,-0.033081,0.025635,-0.000916,0.003906,-0.003906,0.027344,0.269468,,,
2862800000,0.999146,-0.033081,0.025635,-0.000916,-0.035156,-0.003906,0.027344,0.289311,,,
2883278000,0.999146,-0.033081,0.025635,-0.000916,0.003906,-0.003906,-0.011719,0.309789,,,
2907006000,0.999146,-0.033081,0.025635,-0.000916,0.003906,-0.003906,0.027344,0.333517,,,
2923118000,0.999146,-0.033142,0.025635,-0.000916,0.003906,-0.003906,-0.011719,0.349629,,,
2942937000,0.999146,-0.033142,0.025635,-0.000916,0.003906,-0.003906,-0.011719,0.369448,,,
2963342000,0.999146,-0.033142,0.025574,-0.000916,0.039062,-0.003906,0.027344,0.389853,,,
2982592000,0.999146,-0.033142,0.025574,-0.000916,0.003906,-0.003906,-0.011719,0.409103,,,
3003121000,0.999146,-0.033142,0.025574,-0.000916,0.003906,-0.003906,0.027344,0.429632,,,
3022609000,0.999146,-0.033142,0.025635,-0.000916,0.003906,-0.003906,-0.011719,0.44912,,,
3042266000,0.999146,-0.033142,0.025574,-0.000916,0.003906,-0.003906,0.027344,0.468777,,,
3064302000,0.999146,-0.033081,0.025574,-0.000916,0.003906,-0.003906,-0.011719,0.490813,,,
3082811000,0.999146,-0.033142,0.025635,-0.000916,0.003906,-0.003906,-0.011719,0.509322,,,
3102039000,0.999146,-0.033142,0.025635,-0.000916,0.003906,0.035156,-0.011719,0.52855,,,
3122036000,0.999146,-0.033142,0.025635,-0.000916,0.003906,-0.003906,0.027344,0.548547,,,
3142005000,0.999146,-0.033142,0.025635,-0.000916,-0.035156,-0.003906,0.027344,0.568516,,,
3162298000,0.999146,-0.033142,0.025635,-0.000916,0.003906,0.035156,0.027344,0.588809,,,
3187554000,0.999146,-0.033142,0.025635,-0.000916,0.003906,-0.003906,0.027344,0.614065,,,
3204569000,0.999146,-0.033142,0.025635,-0.000916,0.003906,-0.003906,-0.011719,0.63108,,,
3225344000,0.999146,-0.033142,0.025574,-0.000916,0.003906,0.035156,0.027344,0.651855,,,
3241933000,0.999146,-0.033142,0.025574,-0.000916,0.003906,-0.003906,0.027344,0.668444,,,
3262329000,0.999146,-0.033142,0.025574,-0.000916,0.003906,-0.003906,-0.011719,0.68884,,,
3285012000,0.999146,-0.033142,0.025635,-0.000916,0.003906,-0.003906,0.027344,0.711523,,,
3302155000,0.999146,-0.033142,0.025635,-0.000916,0.003906,-0.003906,-0.011719,0.728666,,,
3321822000,0.999146,-0.033203,0.025635,-0.000916,0.003906,-0.003906,0.027344,0.748333,,,
3347380000,0.999146,-0.033203,0.025635,-0.000916,0.003906,-0.003906,0.027344,0.773891,,,
3361590000,0.999146,-0.033142,0.025635,-0.000916,0.003906,-0.003906,-0.011719,0.788101,,,
3381603000,0.999146,-0.033142,0.025635,-0.000916,-0.035156,-0.003906,0.027344,0.808114,,,
3403014000,0.999146,-0.033142,0.025635,-0.000916,0.003906,-0.003906,0.027344,0.829525,,,
3425767000,0.999146,-0.033203,0.025635,-0.000916,0.003906,-0.003906,0.019531,0.852278,,,
3441149000,0.999146,-0.033142,0.025635,-0.000916,-0.035156,-0.003906,0.019531,0.86766,,,
3461771000,0.999146,-0.033203,0.025635,-0.000916,0.003906,-0.003906,0.019531,0.888282,,,
3481978000,0.999146,-0.033203,0.025696,-0.000916,0.003906,-0.003906,0.019531,0.908489,,,
3500874000,0.999146,-0.033203,0.025635,-0.000916,0.003906,-0.003906,-0.019531,0.927385,,,
3531591000,0.999146,-0.033203,0.025635,-0.000916,-0.027344,-0.003906,-0.019531,0.958102,,,
3541391000,0.999146,-0.033203,0.025635,-0.000916,0.011719,-0.003906,-0.019531,0.967902,,,
3560573000,0.999146,-0.033203,0.025635,-0.000916,0.011719,-0.003906,0.019531,0.987084,,,
3591227000,0.999146,-0.033203,0.025635,-0.000916,0.011719,-0.003906,0.027344,1.017738,,,
3604669000,0.999146,-0.033203,0.025635,-0.000916,0.011719,-0.003906,0.027344,1.03118,,,
3620746000,0.999146,-0.033203,0.025635,-0.000916,-0.027344,-0.003906,-0.011719,1.047257,,,
3643319000,0.999146,-0.033203,0.025635,-0.000916,0.011719,-0.003906,0.027344,1.06983,,,
3660275000,0.999146,-0.033203,0.025635,-0.000916,-0.027344,-0.003906,-0.011719,1.086786,,,
3684986000,0.999146,-0.033203,0.025635,-0.000916,0.011719,-0.003906,0.027344,1.111497,,,
3700080000,0.999146,-0.033203,0.025635,-0.000916,0.011719,-0.003906,-0.011719,1.126591,,,
3724812000,0.999146,-0.033203,0.025635,-0.000916,0.011719,-0.003906,-0.011719,1.151323,,,
3743274000,0.999146,-0.033203,0.025635,-0.000916,-0.027344,-0.003906,0.027344,1.169785,,,
3760062000,0.999146,-0.033203,0.025635,-0.000916,-0.027344,0.035156,-0.011719,1.186573,,,
3784346000,0.999146,-0.033203,0.025635,-0.000916,0.011719,-0.003906,0.027344,1.210857,,,
3799796000,0.999146,-0.033203,0.025635,-0.000916,0.011719,-0.003906,0.027344,1.226307,,,
3819671000,0.999146,-0.033203,0.025635,-0.000916,0.011719,0.035156,0.027344,1.246182,,,
3840941000,0.999146,-0.033203,0.025635,-0.000916,0.011719,-0.003906,-0.011719,1.267452,,,
3859708000,0.999146,-0.033203,0.025635,-0.000916,0.011719,-0.011719,0.027344,1.286219,,,
3879849000,0.999146,-0.033203,0.025635,-0.000916,0.011719,-0.011719,0.027344,1.30636,,,
3901137000,0.999146,-0.033203,0.025635,-0.000916,-0.027344,0.027344,0.027344,1.327648,,,
3926730000,0.999146,-0.033203,0.025635,-0.000916,0.011719,-0.011719,0.027344,1.353241,,,
3939712000,0.999146,-0.033203,0.025635,-0.000916,0.011719,-0.011719,-0.011719,1.366223,,,
3959416000,0.999146,-0.033203,0.025635,-0.000916,0.011719,0.027344,-0.011719,1.385927,,,
3979455000,0.999146,-0.033203,0.025635,-0.000916,0.011719,-0.011719,0.027344,1.405966,,,
4004008000,0.999146,-0.033203,0.025635,-0.000916,0.011719,-0.011719,0.027344,1.430519,,,
4019630000,0.999146,-0.033203,0.025635,-0.000916,0.011719,0.027344,-0.011719,1.446141,,,
4039365000,0.999146,-0.033203,0.025635,-0.000916,0.011719,0.027344,0.027344,1.465876,,,
4062174000,0.999146,-0.033203,0.025635,-0.000916,0.011719,-0.011719,0.027344,1.488685,,,
4084657000,0.999146,-0.033203,0.025635,-0.000916,0.011719,-0.011719,0.027344,1.511168,,,
4099308000,0.999146,-0.033203,0.025635,-0.000916,0.011719,-0.011719,0.027344,1.525819,,,
4119638000,0.999146,-0.033203,0.025635,-0.000916,0.011719,-0.011719,0.027344,1.546149,,,
4149605000,0.999146,-0.033203,0.025635,-0.000916,0.011719,-0.011719,-0.019531,1.576116,,,
4159830000,0.999146,-0.033203,0.025635,-0.000916,0.011719,-0.011719,0.019531,1.586341,,,
4178802000,0.999146,-0.033203,0.025635,-0.000916,0.003906,-0.011719,-0.019531,1.605313,,,
4199610000,0.999146,-0.033203,0.025635,-0.000916,0.003906,0.027344,0.019531,1.626121,,,
4224450000,0.999146,-0.033203,0.025635,-0.000916,0.003906,-0.011719,0.019531,1.650961,,,
4239110000,0.999146,-0.033203,0.025635,-0.000916,-0.035156,-0.011719,0.019531,1.665621,,,
4259830000,0.999146,-0.033203,0.025635,-0.000916,0.003906,-0.011719,0.019531,1.686341,,,
4289578000,0.999146,-0.033203,0.025635,-0.000916,0.003906,0.027344,-0.019531,1.716089,,,
4298651000,0.999146,-0.033203,0.025635,-0.000916,-0.035156,-0.011719,0.019531,1.725162,,,
4318965000,0.999146,-0.033203,0.025635,-0.000916,0.003906,0.027344,-0.019531,1.745476,,,
4338790000,0.999146,-0.033203,0.025635,-0.000916,0.003906,-0.011719,-0.019531,1.765301,,,
4358434000,0.999146,-0.033203,0.025635,-0.000916,0.003906,-0.011719,0.019531,1.784945,,,
4378154000,0.999146,-0.033203,0.025635,-0.000916,-0.035156,-0.011719,-0.019531,1.804665,,,
4398215000,0.999146,-0.033203,0.025635,-0.000916,-0.035156,-0.011719,-0.019531,1.824726,,,
4428650000,0.999146,-0.033203,0.025635,-0.000916,0.011719,-0.011719,0.019531,1.855161,,,
4438353000,0.999146,-0.033203,0.025635,-0.000916,0.011719,-0.011719,0.019531,1.864864,,,
4457990000,0.999146,-0.033203,0.025635,-0.000916,0.011719,-0.011719,0.019531,1.884501,,,
4478136000,0.999146,-0.033203,0.025635,-0.000916,0.003906,-0.011719,-0.019531,1.904647,,,
4501242000,0.999146,-0.033203,0.025635,-0.000916,0.003906,-0.011719,0.019531,1.927753,,,
4519081000,0.999146,-0.033203,0.025635,-0.000916,0.003906,-0.011719,0.019531,1.945592,,,
4548572000,0.999146,-0.033203,0.025635,-0.000916,0.003906,0.027344,-0.019531,1.975083,,,
4557694000,0.999146,-0.033203,0.025635,-0.000916,0.003906,0.027344,0.019531,1.984205,,,
4578108000,0.999146,-0.033203,0.025635,-0.000916,0.003906,-0.011719,0.019531,2.004619,,,
4608149000,0.999146,-0.033203,0.025635,-0.000916,0.003906,-0.011719,0.019531,2.03466,,,
4617694000,0.999146,-0.033203,0.025635,-0.000916,-0.035156,-0.011719,0.019531,2.044205,,,
4650603000,0.999146,-0.033203,0.025635,-0.000916,0.003906,-0.011719,0.019531,2.077114,,,
4657763000,0.999146,-0.033203,0.025635,-0.000916,0.003906,-0.011719,0.019531,2.084274,,,
4682859000,0.999146,-0.033203,0.025635,-0.000916,0.003906,-0.011719,0.019531,2.10937,,,
4697658000,0.999146,-0.033203,0.025635,-0.000916,0.003906,0.027344,-0.019531,2.124169,,,
4717684000,0.999146,-0.033203,0.025635,-0.000916,0.003906,-0.011719,0.019531,2.144195,,,
4747303000,0.999146,-0.033203,0.025635,-0.000916,0.003906,-0.011719,0.011719,2.173814,,,
4757645000,0.999146,-0.033203,0.025635,-0.000916,0.003906,-0.011719,0.011719,2.184156,,,
4781685000,0.999146,-0.033203,0.025635,-0.000916,0.003906,-0.011719,-0.027344,2.208196,,,
4797717000,0.999146,-0.033203,0.025635,-0.000916,0.003906,-0.011719,0.011719,2.224228,,,
4817431000,0.999146,-0.033203,0.025635,-0.000916,0.003906,-0.011719,0.011719,2.243942,,,
4847858000,0.999146,-0.033203,0.025635,-0.000916,0.003906,0.027344,0.011719,2.274369,,,
4857352000,0.999146,-0.033203,0.025635,-0.000916,0.003906,-0.011719,0.011719,2.283863,,,
4877545000,0.999146,-0.033203,0.025635,-0.000916,0.003906,-0.011719,0.011719,2.304056,,,
4903040000,0.999146,-0.033203,0.025635,-0.000916,-0.035156,-0.011719,0.011719,2.329551,,,
4917184000,0.999146,-0.033203,0.025635,-0.000916,-0.035156,0.027344,0.011719,2.343695,,,
4937088000,0.999146,-0.033203,0.025635,-0.000916,0.003906,-0.011719,-0.027344,2.363599,,,
4958197000,0.999146,-0.033203,0.025635,-0.000916,-0.035156,-0.011719,-0.027344,2.384708,,,
4976974000,0.999146,-0.033203,0.025635,-0.000916,0.003906,0.027344,0.011719,2.403485,,,
4997040000,0.999146,-0.033203,0.025635,-0.000916,0.003906,-0.011719,0.011719,2.423551,,,
5022299000,0.999146,-0.033203,0.025635,-0.000916,0.003906,0.027344,0.011719,2.44881,,,
5036944000,0.999146,-0.033203,0.025635,-0.000916,0.003906,-0.011719,0.011719,2.463455,,,
5057354000,0.999146,-0.033203,0.025635,-0.000916,-0.027344,-0.011719,0.011719,2.483865,,,
5076973000,0.999146,-0.033203,0.025635,-0.000916,0.011719,-0.011719,-0.027344,2.503484,,,
5096917000,0.999146,-0.033203,0.025635,-0.000916,0.011719,-0.011719,0.011719,2.523428,,,
5116924000,0.999146,-0.033203,0.025635,-0.000916,0.011719,-0.011719,0.011719,2.543435,,,
5137145000,0.999146,-0.033203,0.025635,-0.000916,0.011719,-0.011719,0.011719,2.563656,,,
5166112000,0.999146,-0.033203,0.025635,-0.000916,0.011719,-0.011719,0.011719,2.592623,,,
5176706000,0.999146,-0.033203,0.025635,-0.000916,0.011719,-0.011719,0.011719,2.603217,,,
5206264000,0.999146,-0.033203,0.025635,-0.000916,0.011719,-0.011719,0.011719,2.632775,,,
5216262000,0.999146,-0.033203,0.025635,-0.000916,0.011719,0.027344,-0.027344,2.642773,,,
5236876000,0.999146,-0.033203,0.025635,-0.000916,0.011719,-0.011719,0.011719,2.663387,,,
5266470000,0.999146,-0.033203,0.025635,-0.000916,0.011719,-0.011719,0.011719,2.692981,,,
5276000000,0.999146,-0.033203,0.025635,-0.000916,0.011719,-0.011719,0.011719,2.702511,,,
5296800000,0.999146,-0.033203,0.025635,-0.000916,0.011719,-0.011719,0.050781,2.723311,,,
5316764000,0.999146,-0.033203,0.025635,-0.000916,0.011719,0.027344,0.011719,2.743275,,,
5345831000,0.999146,-0.033203,0.025635,-0.000916,0.011719,-0.011719,0.011719,2.772342,,,
5355968000,0.999146,-0.033203,0.025635,-0.000916,0.011719,-0.011719,0.011719,2.782479,,,
5386290000,0.999146,-0.033203,0.025635,-0.000916,0.011719,-0.011719,0.011719,2.812801,,,
5401377000,0.999146,-0.033203,0.025635,-0.000916,-0.027344,0.027344,0.011719,2.827888,,,
5416056000,0.999146,-0.033203,0.025635,-0.000916,0.011719,-0.011719,0.011719,2.842567,,,
5436415000,0.999146,-0.033203,0.025635,-0.000916,0.046875,-0.011719,-0.027344,2.862926,,,
5465399000,0.999146,-0.033203,0.025635,-0.000916,0.011719,0.027344,0.011719,2.89191,,,
5475826000,0.999146,-0.033203,0.025635,-0.000916,0.011719,-0.011719,0.011719,2.902337,,,
5500377000,0.999146,-0.033203,0.025635,-0.000916,0.011719,0.027344,-0.027344,2.926888,,,
5516398000,0.999146,-0.033203,0.025635,-0.000916,0.011719,0.027344,-0.027344,2.942909,,,
5546586000,0.999146,-0.033203,0.025635,-0.000916,0.011719,-0.011719,-0.027344,2.973097,,,
5555322000,0.999146,-0.033203,0.025635,-0.000916,0.011719,-0.011719,0.011719,2.981833,,,
5576434000,0.999146,-0.033203,0.025635,-0.000916,0.003906,0.027344,0.011719,3.002945,,,
5596320000,0.999146,-0.033203,0.025635,-0.000916,0.003906,-0.011719,-0.027344,3.022831,,,
5616507000,0.999146,-0.033203,0.025635,-0.000916,0.003906,-0.011719,0.011719,3.043018,,,
5636515000,0.999146,-0.033203,0.025635,-0.000916,0.003906,-0.011719,-0.027344,3.063026,,,
5656172000,0.999146,-0.033203,0.025635,-0.000916,0.003906,0.019531,0.019531,3.082683,,,
5685377000,0.999146,-0.033203,0.025635,-0.000916,0.003906,-0.019531,0.019531,3.111888,,,
5695268000,0.999146,-0.033203,0.025635,-0.000916,0.003906,-0.019531,0.019531,3.121779,,,
5726121000,0.999146,-0.033203,0.025635,-0.000916,0.003906,-0.019531,0.011719,3.152632,,,
5735319000,0.999146,-0.033203,0.025635,-0.000916,0.003906,-0.019531,0.011719,3.16183,,,
5756031000,0.999146,-0.033203,0.025635,-0.000916,0.003906,0.019531,-0.027344,3.182542,,,
5776405000,0.999146,-0.033203,0.025635,-0.000916,0.003906,-0.011719,0.011719,3.202916,,,
5806293000,0.999146,-0.033203,0.025635,-0.000916,0.003906,-0.011719,0.011719,3.232804,,,
5824544000,0.999146,-0.033203,0.025635,-0.000916,0.003906,-0.011719,0.011719,3.251055,,,
5835107000,0.999146,-0.033203,0.025635,-0.000916,0.039062,-0.011719,0.011719,3.261618,,,
5865753000,0.999146,-0.033203,0.025635,-0.000916,0.003906,-0.011719,0.011719,3.292264,,,
5884895000,0.999146,-0.033203,0.025635,-0.000916,0.003906,-0.011719,-0.027344,3.311406,,,
5895140000,0.999146,-0.033203,0.025635,-0.000916,0.003906,-0.011719,-0.027344,3.321651,,,
5924329000,0.999146,-0.033203,0.025635,-0.000916,0.003906,-0.011719,0.011719,3.35084,,,
5944083000,0.999146,-0.033203,0.025635,-0.000916,0.003906,0.027344,0.011719,3.370594,,,
5964833000,0.999146,-0.033203,0.025635,-0.000916,0.003906,-0.011719,-0.027344,3.391344,,,
5984496000,0.999146,-0.033203,0.025635,-0.000916,0.003906,-0.011719,-0.027344,3.411007,,,
6004699000,0.999146,-0.033203,0.025635,-0.000916,0.039062,-0.011719,0.011719,3.43121,,,
6024172000,0.999146,-0.033203,0.025635,-0.000916,0.039062,-0.011719,-0.027344,3.450683,,,
6049098000,0.999146,-0.033203,0.025635,-0.000916,0.003906,-0.011719,0.011719,3.475609,,,
6065410000,0.999146,-0.033203,0.025635,-0.000916,0.003906,-0.011719,0.011719,3.491921,,,
6084718000,0.999146,-0.033203,0.025635,-0.000916,0.003906,-0.011719,-0.027344,3.511229,,,
6103606000,0.999146,-0.033203,0.025635,-0.000916,0.003906,0.027344,0.011719,3.530117,,,
6124847000,0.999146,-0.033203,0.025635,-0.000916,0.003906,-0.011719,0.011719,3.551358,,,
6143912000,0.999146,-0.033203,0.025635,-0.000916,0.003906,-0.011719,0.011719,3.570423,,,
6163809000,0.999146,-0.033203,0.025635,-0.000916,0.003906,-0.011719,0.050781,3.59032,,,
6183820000,0.999146,-0.033203,0.025635,-0.000916,0.003906,0.027344,-0.027344,3.610331,,,
6207642000,0.999146,-0.033203,0.025635,-0.000916,0.003906,-0.011719,0.011719,3.634153,,,
6224153000,0.999146,-0.033203,0.025635,-0.000916,0.003906,-0.011719,0.011719,3.650664,,,
6243618000,0.999146,-0.033203,0.025635,-0.000916,0.003906,-0.011719,0.011719,3.670129,,,
6263474000,0.999146,-0.033203,0.025635,-0.000916,0.003906,-0.011719,0.011719,3.689985,,,
6288386000,0.999146,-0.033203,0.025635,-0.000916,0.003906,-0.011719,-0.027344,3.714897,,,
6303777000,0.999146,-0.033203,0.025635,-0.000916,0.003906,-0.011719,0.011719,3.730288,,,
6324114000,0.999146,-0.033203,0.025635,-0.000916,0.003906,0.027344,0.011719,3.750625,,,
6345676000,0.999146,-0.033203,0.025635,-0.000916,0.003906,0.027344,0.011719,3.772187,,,
6363482000,0.999146,-0.033203,0.025635,-0.000916,0.003906,-0.011719,0.011719,3.789993,,,
6383782000,0.999146,-0.033203,0.025635,-0.000916,0.003906,-0.011719,0.011719,3.810293,,,
6402916000,0.999146,-0.033203,0.025635,-0.000916,0.003906,-0.011719,0.011719,3.829427,,,
6424206000,0.999146,-0.033203,0.025635,-0.000916,0.003906,-0.011719,-0.027344,3.850717,,,
6442809000,0.999146,-0.033203,0.025635,-0.000916,0.003906,-0.011719,0.011719,3.86932,,,
6463004000,0.999146,-0.033203,0.025635,-0.000916,0.003906,-0.011719,0.011719,3.889515,,,
6482100000,0.999146,-0.033203,0.025635,-0.000916,0.003906,-0.011719,0.011719,3.908611,,,
6504614000,0.999146,-0.033203,0.025635,-0.000916,0.003906,-0.011719,0.011719,3.931125,,,
6522745000,0.999146,-0.033203,0.025635,-0.000916,0.003906,-0.011719,0.011719,3.949256,,,
6542442000,0.999146,-0.033203,0.025635,-0.000916,0.003906,0.027344,0.011719,3.968953,,,
6563117000,0.999146,-0.033203,0.025635,-0.000916,0.003906,-0.011719,0.011719,3.989628,,,
6588324000,0.999146,-0.033203,0.025635,-0.000916,0.003906,-0.011719,0.011719,4.014835,,,
6603294000,0.999146,-0.033203,0.025635,-0.000916,-0.035156,-0.011719,0.011719,4.029805,,,
6622202000,0.999146,-0.033203,0.025635,-0.000916,0.003906,0.027344,0.011719,4.048713,,,
6646072000,0.999146,-0.033203,0.025635,-0.000916,0.003906,-0.011719,0.011719,4.072583,,,
6662775000,0.999146,-0.033203,0.025635,-0.000916,0.003906,-0.011719,0.050781,4.089286,,,
6682434000,0.999146,-0.033203,0.025635,-0.000916,0.003906,-0.011719,0.011719,4.108945,,,
6702132000,0.999146,-0.033203,0.025635,-0.000916,0.003906,-0.011719,0.050781,4.128643,,,
6725498000,0.999146,-0.033203,0.025635,-0.000916,0.003906,-0.011719,-0.035156,4.152009,,,
6741827000,0.999146,-0.033203,0.025635,-0.000916,0.003906,-0.011719,0.003906,4.168338,,,
6762308000,0.999146,-0.033203,0.025635,-0.000916,0.003906,-0.011719,0.003906,4.188819,,,
6782063000,0.999146,-0.033203,0.025635,-0.000916,0.003906,0.027344,0.003906,4.208574,,,
6806640000,0.999146,-0.033203,0.025635,-0.000916,0.003906,-0.011719,0.003906,4.233151,,,
6821749000,0.999146,-0.033203,0.025635,-0.000916,0.039062,-0.011719,0.003906,4.24826,,,
6842601000,0.999146,-0.033203,0.025635,-0.000916,0.003906,-0.011719,0.003906,4.269112,,,
6863161000,0.999146,-0.033203,0.025635,-0.000916,0.003906,-0.011719,0.003906,4.289672,,,
6881570000,0.999146,-0.033203,0.025635,-0.000916,0.003906,-0.011719,0.003906,4.308081,,,
6901743000,0.999146,-0.033203,0.025635,-0.000916,0.003906,-0.011719,-0.035156,4.328254,,,
6922627000,0.999146,-0.033203,0.025635,-0.000916,0.003906,-0.011719,0.003906,4.349138,,,
6942189000,0.999146,-0.033203,0.025635,-0.000916,0.003906,-0.011719,0.003906,4.3687,,,
6961601000,0.999146,-0.033203,0.025635,-0.000916,0.003906,0.027344,0.042969,4.388112,,,
6987035000,0.999146,-0.033203,0.025635,-0.000916,0.003906,0.027344,0.003906,4.413546,,,
7001469000,0.999146,-0.033203,0.025635,-0.000916,0.003906,0.027344,-0.035156,4.42798,,,
7021673000,0.999146,-0.033203,0.025635,-0.000916,0.003906,0.027344,0.003906,4.448184,,,
7042518000,0.999146,-0.033203,0.025635,-0.000916,0.003906,-0.011719,0.003906,4.469029,,,
7061652000,0.999146,-0.033264,0.025635,-0.000916,0.003906,-0.011719,0.003906,4.488163,,,
7081637000,0.999146,-0.033203,0.025635,-0.000916,0.003906,-0.011719,0.042969,4.508148,,,
7105057000,0.999146,-0.033203,0.025635,-0.000854,0.003906,-0.011719,0.003906,4.531568,,,
7121373000,0.999146,-0.033203,0.025635,-0.000854,0.003906,-0.011719,0.003906,4.547884,,,
7140902000,0.999146,-0.033264,0.025635,-0.000854,0.003906,-0.011719,-0.035156,4.567413,,,
7161188000,0.999146,-0.033264,0.025635,-0.000854,0.003906,-0.011719,0.003906,4.587699,,,
7184743000,0.999146,-0.033264,0.025635,-0.000854,0.003906,-0.011719,0.003906,4.611254,,,
7201204000,0.999146,-0.033264,0.025635,-0.000854,0.003906,-0.011719,0.003906,4.627715,,,
7221438000,0.999146,-0.033264,0.025635,-0.000854,0.003906,0.027344,0.003906,4.647949,,,
7246119000,0.999146,-0.033264,0.025635,-0.000854,-0.035156,0.027344,0.003906,4.67263,,,
7261012000,0.999146,-0.033203,0.025696,-0.000854,0.003906,-0.011719,0.003906,4.687523,,,
7280902000,0.999146,-0.033203,0.025696,-0.000854,0.003906,-0.019531,-0.035156,4.707413,,,
7310365000,0.999146,-0.033203,0.025696,-0.000854,0.039062,-0.019531,0.003906,4.736876,,,
7321392000,0.999146,-0.033203,0.025696,-0.000793,0.003906,0.019531,0.003906,4.747903,,,
7340790000,0.999146,-0.033203,0.025696,-0.000793,0.003906,0.019531,0.003906,4.767301,,,
7361395000,0.999146,-0.033203,0.025696,-0.000793,-0.035156,-0.019531,-0.035156,4.787906,,,
7380307000,0.999146,-0.033203,0.025696,-0.000793,0.003906,-0.019531,0.042969,4.806818,,,
7403266000,0.999146,-0.033142,0.025696,-0.000854,0.003906,-0.019531,0.003906,4.829777,,,
7420611000,0.999146,-0.033142,0.025696,-0.000854,0.003906,0.019531,0.003906,4.847122,,,
7444763000,0.999146,-0.033142,0.025635,-0.000854,0.003906,-0.019531,0.003906,4.871274,,,
7460197000,0.999146,-0.033142,0.025635,-0.000854,-0.035156,0.019531,0.003906,4.886708,,,
7480049000,0.999146,-0.033142,0.025635,-0.000854,0.003906,-0.019531,0.003906,4.90656,,,
7501304000,0.999146,-0.033142,0.025635,-0.000793,0.003906,-0.019531,0.003906,4.927815,,,
7524083000,0.999146,-0.033081,0.025635,-0.000854,0.003906,0.019531,0.003906,4.950594,,,
7540108000,0.999146,-0.033081,0.025635,-0.000854,-0.027344,-0.019531,0.003906,4.966619,,,
7560095000,0.999146,-0.033081,0.025635,-0.000854,0.011719,-0.019531,0.003906,4.986606,,,
7584472000,0.999146,-0.033081,0.025574,-0.000854,0.011719,0.019531,0.003906,5.010983,,,
7599677000,0.999146,-0.033081,0.025574,-0.000854,0.011719,-0.019531,0.003906,5.026188,,,
7620460000,0.999146,-0.033081,0.025574,-0.000854,0.011719,0.019531,0.003906,5.046971,,,
7649601000,0.999146,-0.033081,0.025574,-0.000793,0.011719,-0.019531,0.003906,5.076112,,,
7660063000,0.999146,-0.033081,0.025574,-0.000854,0.011719,-0.019531,0.003906,5.086574,,,
7679940000,0.999146,-0.033081,0.025574,-0.000854,0.011719,-0.019531,0.042969,5.106451,,,
7700431000,0.999146,-0.033081,0.025574,-0.000854,0.003906,-0.019531,0.003906,5.126942,,,
7719847000,0.999146,-0.033081,0.025574,-0.000854,0.003906,0.027344,0.003906,5.146358,,,
7740030000,0.999146,-0.033081,0.025574,-0.000854,0.003906,-0.011719,0.003906,5.166541,,,
7760578000,0.999146,-0.033081,0.025574,-0.000854,0.003906,-0.011719,0.042969,5.187089,,,
7779233000,0.999146,-0.033081,0.025574,-0.000854,0.003906,0.027344,0.003906,5.205744,,,
7800130000,0.999146,-0.033142,0.025574,-0.000854,0.039062,-0.011719,-0.035156,5.226641,,,
7825088000,0.999146,-0.033142,0.025574,-0.000854,0.003906,0.027344,0.003906,5.251599,,,
7839748000,0.999146,-0.033081,0.025574,-0.000854,0.003906,-0.011719,0.003906,5.266259,,,
7859670000,0.999146,-0.033081,0.025574,-0.000793,0.003906,-0.011719,0.042969,5.286181,,,
7884450000,0.999146,-0.033081,0.025574,-0.000854,0.003906,0.027344,0.003906,5.310961,,,
7899248000,0.999146,-0.033081,0.025574,-0.000793,0.003906,-0.011719,0.003906,5.325759,,,
7919901000,0.999146,-0.033081,0.025574,-0.000854,0.003906,0.019531,0.003906,5.346412,,,
7943434000,0.999146,-0.033081,0.025574,-0.000793,0.003906,-0.019531,-0.035156,5.369945,,,
7959163000,0.999146,-0.033081,0.025635,-0.000854,0.003906,0.019531,0.003906,5.385674,,,
7979577000,0.999146,-0.033081,0.025635,-0.000854,0.003906,0.019531,0.003906,5.406088,,,
7999118000,0.999146,-0.03302,0.025635,-0.000854,0.039062,-0.019531,0.003906,5.425629,,,
8029050000,0.999146,-0.03302,0.025635,-0.000854,0.039062,-0.019531,0.003906,5.455561,,,
8038950000,0.999146,-0.03302,0.025635,-0.000854,0.003906,-0.019531,0.003906,5.465461,,,
8058266000,0.999146,-0.03302,0.025635,-0.000854,0.003906,0.019531,0.003906,5.484777,,,
8078334000,0.999146,-0.03302,0.025635,-0.000854,0.003906,-0.019531,0.042969,5.504845,,,
8100345000,0.999146,-0.03302,0.025635,-0.000854,-0.035156,-0.019531,0.042969,5.526856,,,
8125197000,0.999146,-0.03302,0.025635,-0.000854,0.003906,-0.019531,0.003906,5.551708,,,
8141832000,0.999146,-0.03302,0.025635,-0.000854,0.003906,-0.019531,0.003906,5.568343,,,
8158130000,0.999146,-0.03302,0.025635,-0.000854,0.003906,-0.019531,0.003906,5.584641,,,
8188779000,0.999146,-0.03302,0.025635,-0.000854,0.003906,-0.019531,0.042969,5.61529,,,
8198063000,0.999146,-0.03302,0.025635,-0.000854,0.003906,-0.011719,0.003906,5.624574,,,
8218586000,0.999146,-0.033081,0.025574,-0.000854,0.003906,-0.011719,0.003906,5.645097,,,
8238209000,0.999146,-0.033081,0.025574,-0.000854,0.003906,0.027344,-0.035156,5.66472,,,
8259262000,0.999146,-0.033081,0.025574,-0.000793,0.003906,-0.011719,0.003906,5.685773,,,
8287722000,0.999146,-0.033142,0.025574,-0.000793,0.003906,-0.011719,0.042969,5.714233,,,
8298013000,0.999146,-0.033142,0.025574,-0.000793,0.003906,0.027344,0.003906,5.724524,,,
8317945000,0.999146,-0.033081,0.025574,-0.000854,0.003906,0.027344,0.003906,5.744456,,,
8338428000,0.999146,-0.033142,0.025574,-0.000854,0.003906,-0.011719,0.003906,5.764939,,,
8367623000,0.999146,-0.033081,0.025574,-0.000854,0.003906,-0.011719,0.003906,5.794134,,,
8377767000,0.999146,-0.033081,0.025574,-0.000854,0.003906,0.027344,0.003906,5.804278,,,
8398212000,0.999146,-0.033081,0.025574,-0.000854,0.003906,-0.011719,0.003906,5.824723,,,
8417340000,0.999146,-0.033142,0.025574,-0.000854,0.003906,0.027344,0.003906,5.843851,,,
8443879000,0.999146,-0.033142,0.025574,-0.000854,0.003906,-0.019531,0.003906,5.87039,,,
8457735000,0.999146,-0.033142,0.025574,-0.000854,0.003906,-0.019531,0.003906,5.884246,,,
8478215000,0.999146,-0.033142,0.025574,-0.000854,0.003906,-0.019531,0.042969,5.904726,,,
8507934000,0.999146,-0.033142,0.025574,-0.000854,0.003906,0.019531,-0.003906,5.934445,,,
8523125000,0.999146,-0.033142,0.025513,-0.000854,0.003906,-0.019531,-0.003906,5.949636,,,
8537592000,0.999146,-0.033142,0.025513,-0.000854,0.003906,-0.019531,-0.003906,5.964103,,,
8557984000,0.999146,-0.033081,0.025574,-0.000854,0.003906,-0.019531,0.035156,5.984495,,,
8587074000,0.999146,-0.033081,0.025574,-0.000854,0.003906,0.019531,0.042969,6.013585,,,
8597643000,0.999146,-0.033081,0.025574,-0.000854,0.003906,-0.019531,0.003906,6.024154,,,
8617449000,0.999146,-0.033081,0.025574,-0.000854,0.003906,-0.019531,0.003906,6.04396,,,
8647521000,0.999146,-0.033081,0.025574,-0.000854,0.039062,-0.011719,0.003906,6.074032,,,
8662830000,0.999146,-0.033081,0.025574,-0.000793,0.003906,-0.011719,0.003906,6.089341,,,
8677408000,0.999146,-0.03302,0.025574,-0.000793,0.003906,0.027344,0.003906,6.103919,,,
8697462000,0.999146,-0.03302,0.025635,-0.000854,0.003906,0.019531,-0.003906,6.123973,,,
8718226000,0.999146,-0.03302,0.025574,-0.000793,0.003906,-0.058594,-0.003906,6.144737,,,
8747539000,0.999146,-0.03302,0.025635,-0.000793,0.003906,-0.011719,-0.003906,6.17405,,,
8756632000,0.999146,-0.033081,0.025635,-0.000793,0.003906,-0.011719,-0.003906,6.183143,,,
8777337000,0.999146,-0.03302,0.025635,-0.000793,0.003906,0.027344,-0.003906,6.203848,,,
8806281000,0.999146,-0.03302,0.025635,-0.000793,0.003906,0.027344,-0.003906,6.232792,,,
8817150000,0.999146,-0.03302,0.025635,-0.000793,0.003906,0.027344,-0.035156,6.243661,,,
8838221000,0.999146,-0.03302,0.025574,-0.000793,0.003906,0.019531,0.003906,6.264732,,,
8857129000,0.999146,-0.03302,0.025635,-0.000793,0.003906,-0.019531,0.003906,6.28364,,,
8886240000,0.999146,-0.03302,0.025635,-0.000793,0.003906,-0.019531,0.042969,6.312751,,,
8896754000,0.999146,-0.03302,0.025635,-0.000793,0.003906,-0.019531,0.003906,6.323265,,,
8916789000,0.999146,-0.03302,0.025635,-0.000793,-0.003906,-0.019531,-0.035156,6.3433,,,
8939412000,0.999146,-0.033081,0.025635,-0.000793,0.003906,0.027344,0.003906,6.365923,,,
8966911000,0.999146,-0.033081,0.025574,-0.000793,-0.003906,0.027344,0.042969,6.393422,,,
8976589000,0.999146,-0.033081,0.025574,-0.000793,-0.003906,-0.011719,0.003906,6.4031,,,
8996793000,0.999146,-0.033081,0.025574,-0.000793,-0.003906,0.027344,0.003906,6.423304,,,
9016741000,0.999146,-0.033081,0.025574,-0.000793,-0.003906,0.019531,-0.035156,6.443252,,,
9037819000,0.999146,-0.03302,0.025574,-0.000793,0.03125,-0.019531,-0.035156,6.46433,,,
9056330000,0.999146,-0.03302,0.025574,-0.000793,0.03125,-0.019531,0.042969,6.482841,,,
9076788000,0.999146,-0.03302,0.025574,-0.000793,-0.003906,-0.019531,0.003906,6.503299,,,
9105620000,0.999146,-0.03302,0.025574,-0.000793,-0.003906,0.019531,0.003906,6.532131,,,
9116065000,0.999146,-0.03302,0.025574,-0.000793,-0.003906,-0.019531,-0.035156,6.542576,,,
9136888000,0.999146,-0.033081,0.025574,-0.000793,-0.003906,-0.019531,0.003906,6.563399,,,
9156813000,0.999146,-0.033081,0.025574,-0.000793,-0.003906,-0.019531,0.003906,6.583324,,,
9182435000,0.999146,-0.033081,0.025574,-0.000793,-0.003906,-0.019531,0.003906,6.608946,,,
9196386000,0.999146,-0.033081,0.025574,-0.000793,-0.003906,-0.011719,0.003906,6.622897,,,
9216344000,0.999146,-0.033081,0.025574,-0.000793,-0.003906,-0.011719,0.003906,6.642855,,,
9236350000,0.999146,-0.033081,0.025574,-0.000793,-0.003906,-0.011719,0.003906,6.662861,,,
9256456000,0.999146,-0.033081,0.025574,-0.000793,-0.003906,0.027344,0.003906,6.682967,,,
9284908000,0.999146,-0.033081,0.025574,-0.000793,-0.003906,-0.011719,0.003906,6.711419,3.89,1.56,2.88
9295260000,0.999146,-0.033081,0.025574,-0.000793,-0.003906,0.027344,0.003906,6.721771,,,
9316689000,0.999146,-0.033081,0.025574,-0.000793,0.03125,-0.011719,0.003906,6.7432,,,
9345218000,0.999146,-0.033081,0.025574,-0.000793,-0.003906,-0.011719,0.003906,6.771729,,,
9355572000,0.999146,-0.033081,0.025574,-0.000793,-0.003906,0.027344,0.003906,6.782083,,,
9376616000,0.999146,-0.033081,0.025574,-0.000793,-0.003906,-0.011719,0.042969,6.803127,,,
9404720000,0.999146,-0.033081,0.025574,-0.000793,-0.003906,-0.011719,0.003906,6.831231,,,
9415384000,0.999146,-0.033081,0.025574,-0.000793,-0.003906,-0.011719,0.042969,6.841895,,,
9437026000,0.999146,-0.033081,0.025574,-0.000793,-0.003906,0.019531,0.003906,6.863537,,,
9456538000,0.999146,-0.033081,0.025574,-0.000793,-0.003906,-0.019531,0.003906,6.883049,,,
9484406000,0.999146,-0.033081,0.025574,-0.000793,0.003906,-0.019531,0.003906,6.910917,3.87,1.57,2.88
9500370000,0.999146,-0.033081,0.025574,-0.000793,0.039062,-0.019531,0.003906,6.926881,,,
9529878000,0.999146,-0.033081,0.025574,-0.000793,0.003906,-0.019531,0.042969,6.956389,,,
9535817000,0.999146,-0.033081,0.025574,-0.000793,0.003906,-0.019531,0.003906,6.962328,,,
9564520000,0.999146,-0.033081,0.025574,-0.000793,0.003906,-0.019531,0.003906,6.991031,,,
9575238000,0.999146,-0.033081,0.025574,-0.000793,0.003906,0.019531,0.003906,7.001749,,,
9607575000,0.999146,-0.033081,0.025574,-0.000793,0.003906,0.019531,0.003906,7.034086,,,
9624387000,0.999146,-0.033081,0.025574,-0.000793,0.003906,-0.019531,-0.035156,7.050898,,,
9644669000,0.999146,-0.033081,0.025574,-0.000793,0.003906,-0.019531,0.003906,7.07118,,,
9669379000,0.999146,-0.033081,0.025574,-0.000793,0.003906,-0.019531,0.003906,7.09589,3.93,1.55,2.88
9675320000,0.999146,-0.033081,0.025574,-0.000793,0.003906,-0.019531,0.003906,7.101831,,,
9704379000,0.999146,-0.033081,0.025574,-0.000793,0.003906,-0.019531,0.003906,7.13089,,,
9724214000,0.999146,-0.033081,0.025574,-0.000793,0.003906,-0.019531,0.003906,7.150725,,,
9743834000,0.999146,-0.033081,0.025574,-0.000793,0.003906,0.027344,0.003906,7.170345,,,
9764377000,0.999146,-0.033081,0.025574,-0.000793,0.003906,-0.011719,0.042969,7.190888,,,
9784062000,0.999146,-0.033081,0.025574,-0.000793,0.003906,-0.011719,0.003906,7.210573,,,
9803802000,0.999146,-0.033081,0.025574,-0.000793,0.003906,-0.011719,0.003906,7.230313,,,
9829950000,0.999146,-0.033081,0.025574,-0.000793,-0.035156,0.027344,0.003906,7.256461,,,
9843616000,0.999146,-0.033081,0.025574,-0.000793,0.003906,-0.011719,0.003906,7.270127,,,
9864405000,0.999146,-0.033081,0.025574,-0.000793,0.003906,0.027344,0.003906,7.290916,3.91,1.56,2.9
9885296000,0.999146,-0.033081,0.025574,-0.000793,0.003906,-0.011719,0.042969,7.311807,,,
9903273000,0.999146,-0.033081,0.025574,-0.000793,0.003906,-0.019531,0.003906,7.329784,,,
9923879000,0.999146,-0.033081,0.025574,-0.000793,0.003906,-0.019531,0.042969,7.35039,,,
9943509000,0.999146,-0.033081,0.025574,-0.000793,0.003906,0.019531,0.003906,7.37002,,,
9970576000,0.999146,-0.033081,0.025574,-0.000793,0.003906,-0.011719,0.003906,7.397087,,,
9983387000,0.999146,-0.033081,0.025574,-0.000793,0.003906,-0.011719,0.042969,7.409898,,,
10003771000,0.999146,-0.033081,0.025574,-0.000793,0.003906,-0.011719,0.003906,7.430282,,,
10023029000,0.999146,-0.033081,0.025574,-0.000793,0.003906,0.027344,0.042969,7.44954,,,
10044719000,0.999146,-0.033081,0.025574,-0.000793,0.003906,-0.011719,0.042969,7.47123,,,
10071307000,0.999146,-0.033081,0.025574,-0.000793,0.003906,-0.019531,0.042969,7.497818,3.93,1.55,2.87
10082669000,0.999146,-0.033081,0.025574,-0.000793,0.039062,-0.019531,0.003906,7.50918,,,
10102745000,0.999146,-0.033081,0.025574,-0.000793,0.003906,-0.019531,-0.003906,7.529256,,,
10125161000,0.999146,-0.033081,0.025574,-0.000793,0.003906,-0.019531,-0.003906,7.551672,,,
10143104000,0.999146,-0.033081,0.025574,-0.000793,-0.035156,-0.019531,-0.003906,7.569615,,,
10162583000,0.999146,-0.033081,0.025574,-0.000793,0.003906,-0.019531,-0.003906,7.589094,,,
10182389000,0.999146,-0.033081,0.025574,-0.000793,0.003906,-0.019531,-0.003906,7.6089,,,
10205369000,0.999146,-0.033081,0.025574,-0.000793,-0.035156,0.027344,0.003906,7.63188,,,
10222897000,0.999146,-0.033081,0.025574,-0.000793,0.003906,-0.011719,0.003906,7.649408,,,
10243147000,0.999146,-0.033081,0.025574,-0.000793,0.003906,-0.011719,0.042969,7.669658,,,
10262299000,0.999146,-0.033081,0.025574,-0.000793,0.003906,-0.011719,0.003906,7.68881,,,
10282433000,0.999146,-0.033081,0.025574,-0.000793,0.003906,0.027344,0.003906,7.708944,3.89,1.57,2.87
10302519000,0.999146,-0.033081,0.025574,-0.000793,-0.035156,-0.011719,0.003906,7.72903,,,
10322825000,0.999146,-0.033081,0.025574,-0.000793,0.039062,-0.011719,0.003906,7.749336,,,
10341994000,0.999146,-0.033081,0.025574,-0.000793,0.003906,-0.011719,0.042969,7.768505,,,
10364791000,0.999146,-0.033081,0.025574,-0.000793,0.003906,0.027344,0.003906,7.791302,,,
10388061000,0.999146,-0.033081,0.025574,-0.000793,0.003906,0.027344,0.042969,7.814572,,,
10402516000,0.999146,-0.033081,0.025574,-0.000793,0.003906,0.027344,0.042969,7.829027,,,
10421766000,0.999146,-0.033081,0.025574,-0.000793,0.003906,0.027344,0.042969,7.848277,,,
10442545000,0.999146,-0.033081,0.025574,-0.000793,0.003906,0.019531,-0.003906,7.869056,,,
10466745000,0.999146,-0.033081,0.025574,-0.000793,0.039062,0.019531,-0.003906,7.893256,3.91,1.56,2.9
10481922000,0.999146,-0.033081,0.025574,-0.000793,0.003906,-0.019531,-0.003906,7.908433,,,
10506391000,0.999146,-0.033081,0.025574,-0.000793,0.039062,-0.019531,-0.003906,7.932902,,,
10521996000,0.999146,-0.033081,0.025574,-0.000793,0.003906,0.019531,-0.003906,7.948507,,,
10541824000,0.999146,-0.033081,0.025574,-0.000793,0.003906,0.019531,-0.003906,7.968335,,,
10562181000,0.999146,-0.033081,0.025574,-0.000793,0.003906,0.019531,-0.003906,7.988692,,,
10591749000,0.999146,-0.033081,0.025574,-0.000793,0.003906,-0.019531,-0.003906,8.01826,,,
10601733000,0.999146,-0.033081,0.025574,-0.000793,0.003906,-0.019531,-0.003906,8.028244,,,
10621511000,0.999146,-0.033081,0.025574,-0.000793,0.003906,-0.019531,0.003906,8.048022,,,
10641352000,0.999146,-0.033081,0.025574,-0.000793,0.003906,-0.019531,0.003906,8.067863,,,
10661292000,0.999146,-0.033081,0.025574,-0.000793,0.003906,0.019531,0.003906,8.087803,,,
10687255000,0.999146,-0.033081,0.025574,-0.000793,0.003906,-0.019531,0.003906,8.113766,3.92,1.57,2.9
10701624000,0.999146,-0.033081,0.025574,-0.000793,0.003906,-0.019531,0.003906,8.128135,,,
10720922000,0.999146,-0.033081,0.025574,-0.000793,-0.035156,-0.019531,0.042969,8.147433,,,
10741543000,0.999146,-0.033081,0.025574,-0.000793,0.003906,0.019531,0.003906,8.168054,,,
10761492000,0.999146,-0.033081,0.025574,-0.000793,0.039062,-0.019531,0.003906,8.188003,,,
10783075000,0.999146,-0.033081,0.025574,-0.000793,0.003906,-0.019531,0.003906,8.209586,,,
10800985000,0.999146,-0.033081,0.025574,-0.000793,0.003906,-0.019531,0.003906,8.227496,,,
10831395000,0.999146,-0.033081,0.025574,-0.000793,0.003906,0.019531,0.003906,8.257906,,,
10846154000,0.999146,-0.033081,0.025574,-0.000793,0.003906,-0.019531,0.003906,8.272665,,,
10860655000,0.999146,-0.033081,0.025574,-0.000793,0.003906,0.019531,0.003906,8.287166,,,
10880741000,0.999146,-0.033081,0.025574,-0.000793,0.003906,0.019531,0.003906,8.307252,3.89,1.55,2.88
10902248000,0.999146,-0.033081,0.025574,-0.000793,0.003906,0.019531,0.003906,8.328759,,,
10927503000,0.999146,-0.033081,0.025574,-0.000793,0.003906,-0.019531,0.003906,8.354014,,,
10940479000,0.999146,-0.033081,0.025574,-0.000793,0.003906,-0.019531,-0.035156,8.36699,,,
10960510000,0.999146,-0.033081,0.025574,-0.000793,0.003906,0.019531,0.003906,8.387021,,,
10992621000,0.999146,-0.033081,0.025574,-0.000793,0.003906,0.019531,0.003906,8.419132,,,
11000729000,0.999146,-0.033081,0.025574,-0.000793,0.003906,-0.019531,0.003906,8.42724,,,
11020165000,0.999146,-0.033081,0.025574,-0.000793,0.003906,-0.019531,0.042969,8.446676,,,
11040243000,0.999146,-0.033081,0.025574,-0.000793,0.003906,0.019531,0.003906,8.466754,,,
11061371000,0.999146,-0.033081,0.025574,-0.000793,0.003906,0.019531,0.003906,8.487882,,,
11088633000,0.999146,-0.033081,0.025574,-0.000793,0.003906,-0.019531,0.003906,8.515144,3.93,1.56,2.89
11100303000,0.999146,-0.033081,0.025574,-0.000793,0.003906,-0.019531,0.003906,8.526814,,,
11120009000,0.999146,-0.033081,0.025574,-0.000793,0.003906,-0.019531,0.003906,8.54652,,,
11141296000,0.999146,-0.033081,0.025574,-0.000793,0.003906,-0.019531,0.003906,8.567807,,,
11166403000,0.999146,-0.033081,0.025574,-0.000793,0.003906,-0.019531,0.003906,8.592914,,,
11179910000,0.999146,-0.033081,0.025574,-0.000793,0.003906,-0.019531,0.003906,8.606421,,,
11200069000,0.999146,-0.033081,0.025574,-0.000793,0.003906,-0.019531,0.003906,8.62658,,,
11220350000,0.999146,-0.033081,0.025574,-0.000793,0.003906,-0.019531,0.003906,8.646861,,,
11239774000,0.999146,-0.033081,0.025574,-0.000793,-0.035156,-0.019531,0.003906,8.666285,,,
11261178000,0.999146,-0.033081,0.025574,-0.000793,0.003906,0.019531,0.003906,8.687689,,,
11279393000,0.999146,-0.033081,0.025574,-0.000793,0.003906,-0.019531,0.003906,8.705904,3.88,1.57,2.9
11301631000,0.999146,-0.033081,0.025574,-0.000793,0.003906,-0.019531,0.003906,8.728142,,,
11319739000,0.999146,-0.033081,0.025574,-0.000793,0.003906,-0.019531,0.003906,8.74625,,,
11339469000,0.999146,-0.033081,0.025574,-0.000793,-0.035156,0.019531,0.042969,8.76598,,,
11364804000,0.999146,-0.033081,0.025574,-0.000793,-0.035156,-0.019531,0.003906,8.791315,,,
11379605000,0.999146,-0.033081,0.025574,-0.000793,0.003906,-0.011719,0.042969,8.806116,,,
11399515000,0.999146,-0.033081,0.025574,-0.000793,0.003906,-0.011719,0.003906,8.826026,,,
11429172000,0.999146,-0.033081,0.025574,-0.000793,0.003906,0.027344,0.003906,8.855683,,,
11445919000,0.999146,-0.033081,0.025574,-0.000793,0.003906,0.019531,0.003906,8.87243,,,
11459498000,0.999146,-0.033081,0.025574,-0.000793,0.003906,-0.019531,0.003906,8.886009,,,
11479499000,0.999146,-0.033081,0.025574,-0.000793,0.003906,-0.019531,0.035156,8.90601,3.86,1.52,2.88
11505975000,0.999146,-0.033081,0.025574,-0.000793,0.003906,0.019531,-0.003906,8.932486,,,
11519760000,0.999146,-0.033081,0.025574,-0.000793,0.003906,-0.019531,-0.003906,8.946271,,,
11548808000,0.999146,-0.033081,0.025574,-0.000793,0.003906,-0.011719,-0.003906,8.975319,,,
11559768000,0.999146,-0.033081,0.025574,-0.000793,0.003906,-0.011719,-0.042969,8.986279,,,
11578731000,0.999146,-0.033081,0.025574,-0.000793,0.003906,-0.011719,-0.003906,9.005242,,,
11609386000,0.999146,-0.033081,0.025574,-0.000793,0.003906,0.027344,0.003906,9.035897,,,
11618482000,0.999146,-0.033081,0.025574,-0.000793,0.003906,0.027344,0.003906,9.044993,,,
11639204000,0.999146,-0.033081,0.025574,-0.000793,0.003906,0.019531,0.003906,9.065715,,,
11663580000,0.999146,-0.033081,0.025574,-0.000793,0.003906,0.019531,0.003906,9.090091,,,
11679067000,0.999146,-0.033081,0.025574,-0.000793,0.003906,-0.019531,0.003906,9.105578,3.92,1.55,2.87
11698322000,0.999146,-0.033081,0.025574,-0.000793,0.039062,0.019531,0.003906,9.124833,,,
11728717000,0.999146,-0.033081,0.025574,-0.000793,-0.035156,-0.019531,0.042969,9.155228,,,
11738166000,0.999146,-0.033081,0.025574,-0.000793,0.003906,-0.019531,0.003906,9.164677,,,
11758298000,0.999146,-0.033081,0.025574,-0.000793,0.003906,-0.019531,0.003906,9.184809,,,
11779011000,0.999146,-0.033081,0.025574,-0.000793,0.039062,-0.019531,0.042969,9.205522,,,
11798296000,0.999146,-0.033081,0.025574,-0.000793,-0.035156,0.019531,0.003906,9.224807,,,
11818650000,0.999146,-0.033081,0.025574,-0.000793,0.003906,0.019531,0.003906,9.245161,,,
11839230000,0.999146,-0.033081,0.025574,-0.000793,0.003906,-0.019531,0.003906,9.265741,,,
11863595000,0.999146,-0.033081,0.025574,-0.000793,0.003906,-0.019531,0.003906,9.290106,,,
11877772000,0.999146,-0.033081,0.025574,-0.000793,0.003906,-0.019531,0.003906,9.304283,3.91,1.53,2.93
11898258000,0.999146,-0.033081,0.025574,-0.000793,0.003906,-0.019531,0.003906,9.324769,,,
11919667000,0.999146,-0.033081,0.025574,-0.000793,0.003906,-0.019531,0.003906,9.346178,,,
11943823000,0.999146,-0.033081,0.025574,-0.000793,0.003906,0.019531,0.003906,9.370334,,,
11957777000,0.999146,-0.033081,0.025574,-0.000793,0.003906,0.019531,0.003906,9.384288,,,
11978163000,0.999146,-0.033081,0.025574,-0.000793,0.003906,-0.019531,0.003906,9.404674,,,
12010276000,0.999146,-0.033081,0.025574,-0.000793,0.003906,-0.019531,0.003906,9.436787,,,
12018089000,0.999146,-0.033081,0.025574,-0.000793,0.003906,-0.019531,0.003906,9.4446,,,
12037913000,0.999146,-0.033081,0.025574,-0.000793,0.003906,-0.019531,0.003906,9.464424,,,
12061978000,0.999146,-0.033081,0.025574,-0.000793,0.003906,0.019531,0.003906,9.488489,,,
12078166000,0.999146,-0.033081,0.025574,-0.000793,0.003906,0.019531,0.042969,9.504677,3.94,1.57,2.88
12097869000,0.999146,-0.033081,0.025574,-0.000793,0.003906,-0.019531,0.003906,9.52438,,,
12118417000,0.999146,-0.033081,0.025574,-0.000793,0.003906,0.019531,0.003906,9.544928,,,
12147386000,0.999146,-0.033081,0.025574,-0.000793,0.003906,0.019531,0.003906,9.573897,,,
12157705000,0.999146,-0.033081,0.025574,-0.000793,0.003906,-0.019531,0.042969,9.584216,,,
12179885000,0.999146,-0.033081,0.025574,-0.000793,0.003906,-0.019531,0.003906,9.606396,,,
12207043000,0.999146,-0.033081,0.025574,-0.000793,0.003906,0.019531,0.003906,9.633554,,,
12217730000,0.999146,-0.033081,0.025574,-0.000793,0.003906,0.019531,0.042969,9.644241,,,
12237371000,0.999146,-0.033081,0.025574,-0.000793,0.003906,-0.019531,0.003906,9.663882,,,
12267342000,0.999146,-0.033081,0.025574,-0.000793,0.003906,-0.019531,0.003906,9.693853,3.94,1.56,2.93
12277358000,0.999146,-0.033081,0.025574,-0.000793,0.003906,-0.019531,0.042969,9.703869,,,
12297179000,0.999146,-0.033081,0.025574,-0.000793,0.003906,0.019531,0.003906,9.72369,,,
12326691000,0.999146,-0.033081,0.025574,-0.000793,0.003906,-0.019531,-0.003906,9.753202,,,
12337029000,0.999146,-0.033081,0.025574,-0.000793,0.003906,0.019531,-0.003906,9.76354,,,
12357265000,0.999146,-0.033081,0.025574,-0.000793,0.003906,0.019531,-0.003906,9.783776,,,
12377489000,0.999146,-0.033081,0.025574,-0.000793,0.003906,-0.019531,0.003906,9.804,,,
12407057000,0.999146,-0.033081,0.025574,-0.000793,0.003906,-0.019531,0.003906,9.833568,,,
12416975000,0.999146,-0.033081,0.025574,-0.000793,0.003906,0.019531,0.003906,9.843486,,,
12437313000,0.999146,-0.033081,0.025574,-0.000793,0.039062,-0.019531,0.003906,9.863824,,,
12466691000,0.999146,-0.033081,0.025574,-0.000793,0.003906,-0.019531,0.003906,9.893202,3.89,1.54,2.92
12476407000,0.999146,-0.033081,0.025574,-0.000793,0.003906,0.019531,0.042969,9.902918,,,
12497262000,0.999146,-0.033081,0.025574,-0.000793,0.003906,-0.019531,0.003906,9.923773,,,
12526580000,0.999146,-0.033081,0.025574,-0.000793,0.003906,0.019531,0.003906,9.953091,,,
12536432000,0.999146,-0.033081,0.025574,-0.000793,0.003906,-0.019531,0.035156,9.962943,,,
12556988000,0.999146,-0.033081,0.025574,-0.000793,0.003906,0.019531,-0.003906,9.983499,,,
12586543000,0.999146,-0.033081,0.025574,-0.000793,0.003906,0.019531,-0.003906,10.013054,,,
12596156000,0.999146,-0.033081,0.025574,-0.000793,0.003906,0.019531,-0.003906,10.022667,,,
12617499000,0.999146,-0.033081,0.025574,-0.000793,0.003906,-0.019531,-0.003906,10.04401,,,
12636930000,0.999146,-0.033081,0.025574,-0.000793,0.003906,-0.019531,-0.003906,10.063441,,,
12656974000,0.999146,-0.033081,0.025574,-0.000793,0.003906,-0.019531,-0.003906,10.083485,,,
12678164000,0.999146,-0.033081,0.025574,-0.000793,0.003906,-0.019531,-0.035156,10.104675,3.88,1.56,2.91
12696263000,0.999146,-0.033081,0.025574,-0.000793,0.003906,-0.019531,0.003906,10.122774,,,
12716675000,0.999146,-0.033081,0.025574,-0.000793,0.003906,0.019531,0.003906,10.143186,,,
12737317000,0.999146,-0.033081,0.025574,-0.000793,0.003906,-0.019531,0.003906,10.163828,,,
12766072000,0.999146,-0.033081,0.025574,-0.000793,0.003906,-0.019531,0.003906,10.192583,,,
12775537000,0.999146,-0.033081,0.025574,-0.000793,0.003906,0.019531,0.003906,10.202048,,,
12796678000,0.999146,-0.033081,0.025574,-0.000793,0.003906,-0.019531,0.003906,10.223189,,,
12817427000,0.999146,-0.033081,0.025574,-0.000793,0.003906,-0.019531,0.003906,10.243938,,,
12845367000,0.999146,-0.033081,0.025574,-0.000793,0.003906,0.019531,0.003906,10.271878,,,
12855250000,0.999146,-0.033081,0.025574,-0.000793,0.003906,0.019531,0.042969,10.281761,,,
12876676000,0.999146,-0.033081,0.025574,-0.000793,0.003906,-0.019531,-0.035156,10.303187,3.94,1.53,2.89
12905545000,0.999146,-0.033081,0.025574,-0.000793,0.003906,0.019531,0.003906,10.332056,,,
12915233000,0.999146,-0.033081,0.025574,-0.000793,0.003906,0.019531,0.003906,10.341744,,,
12937445000,0.999146,-0.033081,0.025574,-0.000793,0.003906,0.019531,0.003906,10.363956,,,
12965017000,0.999146,-0.033081,0.025574,-0.000793,0.039062,0.019531,-0.003906,10.391528,,,
12975298000,0.999146,-0.033081,0.025574,-0.000793,0.003906,0.019531,-0.003906,10.401809,,,
13005289000,0.999146,-0.033081,0.025574,-0.000793,0.003906,0.019531,-0.042969,10.4318,,,
13025382000,0.999146,-0.033081,0.025574,-0.000793,0.003906,0.019531,0.003906,10.451893,,,
13046853000,0.999146,-0.033081,0.025574,-0.000793,0.003906,-0.019531,-0.035156,10.473364,,,
13055412000,0.999146,-0.033081,0.025574,-0.000793,0.003906,-0.019531,0.042969,10.481923,,,
13076600000,0.999146,-0.033081,0.025574,-0.000793,0.003906,-0.019531,0.003906,10.503111,3.9,1.54,2.9
13105407000,0.999146,-0.033081,0.025574,-0.000793,-0.003906,-0.019531,0.003906,10.531918,,,
13115327000,0.999146,-0.033081,0.025574,-0.000793,-0.003906,-0.019531,0.003906,10.541838,,,
13144865000,0.999146,-0.033081,0.025574,-0.000793,-0.003906,0.019531,0.003906,10.571376,,,
13165183000,0.999146,-0.033081,0.025574,-0.000793,-0.042969,-0.019531,-0.035156,10.591694,,,
13175253000,0.999146,-0.033081,0.025574,-0.000793,0.003906,-0.019531,0.042969,10.601764,,,
13204615000,0.999146,-0.033081,0.025574,-0.000793,0.003906,-0.019531,0.003906,10.631126,,,
13224577000,0.999146,-0.033081,0.025574,-0.000793,0.003906,-0.019531,0.003906,10.651088,,,
13245343000,0.999146,-0.033081,0.025574,-0.000793,0.003906,0.019531,0.003906,10.671854,,,
13255148000,0.999146,-0.033081,0.025574,-0.000793,0.003906,0.019531,0.003906,10.681659,,,
13284736000,0.999146,-0.033081,0.025574,-0.000793,0.003906,-0.019531,0.003906,10.711247,3.9,1.51,2.89
13304049000,0.999146,-0.033081,0.025574,-0.000793,0.003906,-0.019531,0.003906,10.73056,,,
13329171000,0.999146,-0.033081,0.025574,-0.000793,0.003906,-0.019531,0.003906,10.755682,,,
13344248000,0.999146,-0.033081,0.025574,-0.000793,0.003906,-0.019531,0.003906,10.770759,,,
13364569000,0.999146,-0.033081,0.025574,-0.000793,0.003906,0.019531,0.042969,10.79108,,,
13385043000,0.999146,-0.033081,0.025574,-0.000793,0.003906,-0.019531,0.003906,10.811554,,,
13404350000,0.999146,-0.033081,0.025574,-0.000793,0.003906,0.019531,-0.035156,10.830861,,,
13423744000,0.999146,-0.033081,0.025574,-0.000793,0.003906,0.019531,0.042969,10.850255,,,
13451001000,0.999146,-0.033081,0.025574,-0.000793,0.003906,-0.019531,0.003906,10.877512,,,
13463987000,0.999146,-0.033081,0.025574,-0.000793,0.003906,-0.019531,0.003906,10.890498,,,
13483556000,0.999146,-0.033081,0.025574,-0.000793,0.003906,-0.019531,0.003906,10.910067,3.93,1.56,2.87
13507413000,0.999146,-0.033081,0.025574,-0.000793,0.003906,-0.019531,0.003906,10.933924,,,
13523693000,0.999146,-0.033081,0.025574,-0.000793,0.003906,-0.019531,0.003906,10.950204,,,
13546513000,0.999146,-0.033081,0.025574,-0.000793,0.003906,-0.019531,-0.003906,10.973024,,,
13563370000,0.999146,-0.033081,0.025574,-0.000793,0.003906,-0.019531,-0.003906,10.989881,,,
13585175000,0.999146,-0.033081,0.025574,-0.000793,0.003906,0.019531,0.003906,11.011686,,,
13603355000,0.999146,-0.033081,0.025574,-0.000793,0.003906,0.019531,0.003906,11.029866,,,
13625592000,0.999146,-0.033081,0.025574,-0.000793,0.003906,-0.019531,-0.003906,11.052103,,,
13650887000,0.999146,-0.033081,0.025574,-0.000793,0.003906,-0.019531,0.035156,11.077398,,,
13664105000,0.999146,-0.033081,0.025574,-0.000793,0.003906,-0.019531,-0.003906,11.090616,,,
13683091000,0.999146,-0.033081,0.025574,-0.000793,0.003906,-0.019531,-0.003906,11.109602,3.9,1.54,2.89
13705547000,0.999146,-0.033081,0.025574,-0.000793,0.003906,0.019531,-0.003906,11.132058,,,
13723522000,0.999146,-0.033081,0.025574,-0.000793,0.003906,0.019531,-0.003906,11.150033,,,
13743114000,0.999146,-0.033081,0.025574,-0.000793,0.003906,0.019531,-0.003906,11.169625,,,
13767259000,0.999146,-0.033081,0.025574,-0.000793,0.003906,0.019531,-0.003906,11.19377,,,
13782694000,0.999146,-0.033081,0.025574,-0.000793,0.003906,-0.027344,-0.003906,11.209205,,,
13802874000,0.999146,-0.033081,0.025574,-0.000793,0.003906,0.011719,-0.003906,11.229385,,,
13823363000,0.999146,-0.033081,0.025574,-0.000793,0.039062,-0.027344,-0.003906,11.249874,,,
13847693000,0.999146,-0.033081,0.025574,-0.000793,0.003906,-0.027344,-0.003906,11.274204,,,
13863191000,0.999146,-0.033081,0.025574,-0.000793,0.003906,-0.027344,-0.003906,11.289702,,,
13887851000,0.999146,-0.033081,0.025574,-0.000793,0.003906,-0.019531,0.035156,11.314362,3.91,1.57,2.9
13902870000,0.999146,-0.033081,0.025574,-0.000793,0.003906,-0.019531,-0.003906,11.329381,,,
13923977000,0.999146,-0.033081,0.025574,-0.000793,0.003906,0.019531,-0.003906,11.350488,,,
13942661000,0.999146,-0.033081,0.025574,-0.000793,0.003906,-0.019531,-0.003906,11.369172,,,
13966664000,0.999146,-0.033081,0.025574,-0.000793,0.003906,0.019531,0.035156,11.393175,,,
13982219000,0.999146,-0.033081,0.025574,-0.000793,0.003906,-0.019531,-0.003906,11.40873,,,
14002542000,0.999146,-0.033081,0.025574,-0.000793,0.003906,-0.019531,-0.003906,11.429053,,,
14032605000,0.999146,-0.033081,0.025574,-0.000793,0.003906,-0.019531,-0.003906,11.459116,,,
14042961000,0.999146,-0.033081,0.025574,-0.000793,0.003906,-0.019531,-0.003906,11.469472,,,
14062746000,0.999146,-0.033081,0.025574,-0.000793,0.003906,-0.019531,0.035156,11.489257,,,
14082286000,0.999146,-0.033081,0.025574,-0.000793,0.003906,-0.019531,-0.003906,11.508797,3.88,1.58,2.87
14108917000,0.999146,-0.033081,0.025574,-0.000793,0.003906,0.019531,-0.003906,11.535428,,,
14122386000,0.999146,-0.033081,0.025574,-0.000793,0.003906,-0.019531,0.035156,11.548897,,,
14141904000,0.999146,-0.033081,0.025574,-0.000793,0.003906,-0.019531,-0.003906,11.568415,,,
14161863000,0.999146,-0.033081,0.025574,-0.000793,0.003906,-0.019531,-0.003906,11.588374,,,
14182433000,0.999146,-0.033081,0.025574,-0.000793,0.003906,-0.019531,-0.003906,11.608944,,,
14201771000,0.999146,-0.033081,0.025574,-0.000793,0.003906,-0.019531,-0.003906,11.628282,,,
14222081000,0.999146,-0.033081,0.025574,-0.000793,0.003906,-0.019531,-0.003906,11.648592,,,
14251454000,0.999146,-0.033081,0.025574,-0.000793,0.003906,0.019531,-0.003906,11.677965,,,
14264532000,0.999146,-0.033081,0.025574,-0.000793,0.003906,0.019531,-0.042969,11.691043,,,
14287209000,0.999146,-0.033081,0.025574,-0.000793,0.003906,-0.019531,-0.042969,11.71372,3.87,1.54,2.88
14301694000,0.999146,-0.033081,0.025574,-0.000793,0.003906,0.019531,-0.003906,11.728205,,,
14321351000,0.999146,-0.033081,0.025574,-0.000793,0.003906,-0.019531,0.003906,11.747862,,,
14342262000,0.999146,-0.033081,0.025574,-0.000793,0.003906,-0.019531,0.003906,11.768773,,,
14370588000,0.999146,-0.033081,0.025574,-0.000793,0.003906,0.019531,0.003906,11.797099,,,
14378143000,0.999146,-0.033081,0.025574,-0.000793,0.003906,-0.019531,0.003906,11.804654,,,
14404320000,0.999146,-0.033081,0.025574,-0.000793,0.003906,0.019531,0.042969,11.830831,,,
14416306000,0.999146,-0.033081,0.025574,-0.000793,0.003906,-0.019531,0.003906,11.842817,,,
14437980000,0.999146,-0.033081,0.025574,-0.000793,0.003906,0.097656,-0.035156,11.864491,,,
14461184000,0.999146,-0.03302,0.025513,-0.000793,0.039062,0.136719,0.003906,11.887695,,,
14477663000,0.999146,-0.03302,0.025513,-0.000793,0.003906,0.058594,0.042969,11.904174,3.91,1.55,2.92
14498937000,0.999146,-0.033081,0.025574,-0.000793,0.003906,0.019531,0.035156,11.925448,,,
14518757000,0.999146,-0.033081,0.025574,-0.000793,0.003906,-0.019531,-0.042969,11.945268,,,
14536652000,0.999146,-0.033081,0.025513,-0.000793,0.003906,0.019531,-0.003906,11.963163,,,
14558756000,0.999146,-0.033081,0.025513,-0.000793,0.003906,-0.027344,0.035156,11.985267,,,
14585868000,0.999146,-0.033081,0.025513,-0.000793,0.003906,0.011719,-0.003906,12.012379,,,
14596988000,0.999146,-0.033081,0.025574,-0.000732,-0.035156,-0.140625,-0.042969,12.023499,,,
14617342000,0.999146,-0.033081,0.025513,-0.000732,0.003906,-0.019531,-0.003906,12.043853,,,
14638528000,0.999146,-0.033081,0.025513,-0.000732,0.003906,-0.019531,0.035156,12.065039,,,
14662073000,0.999146,-0.03302,0.025452,-0.000732,0.003906,0.019531,-0.003906,12.088584,,,
14680532000,0.999146,-0.032959,0.025452,-0.000732,0.003906,0.019531,-0.003906,12.107043,3.91,1.61,2.9
14700666000,0.999146,-0.032959,0.025452,-0.000732,0.003906,-0.019531,-0.003906,12.127177,,,
14722297000,0.999146,-0.032959,0.025391,-0.000732,0.003906,0.019531,-0.003906,12.148808,,,
14741074000,0.999146,-0.032959,0.025391,-0.000732,-0.003906,0.019531,-0.003906,12.167585,,,
14770732000,0.999146,-0.032959,0.025452,-0.000732,0.003906,0.019531,0.035156,12.197243,,,
14786397000,0.999146,-0.03302,0.025452,-0.000732,0.003906,-0.019531,-0.003906,12.212908,,,
14800678000,0.999146,-0.03302,0.025452,-0.000732,-0.035156,-0.019531,-0.042969,12.227189,,,
14821210000,0.999146,-0.032959,0.025391,-0.000732,0.039062,-0.058594,-0.042969,12.247721,,,
14850498000,0.999146,-0.03302,0.025452,-0.000732,0.003906,-0.132812,0.035156,12.277009,,,
14860506000,0.999146,-0.032959,0.025391,-0.000732,0.039062,0.136719,-0.003906,12.287017,,,
14880234000,0.999146,-0.032959,0.025391,-0.000732,0.003906,-0.019531,0.003906,12.306745,3.93,1.56,2.9
14909723000,0.999146,-0.032959,0.025391,-0.000732,-0.003906,-0.019531,0.003906,12.336234,,,
14920421000,0.999146,-0.032959,0.025391,-0.000732,-0.003906,-0.019531,0.003906,12.346932,,,
14940452000,0.999146,-0.032959,0.025391,-0.000732,0.003906,-0.019531,0.003906,12.366963,,,
14969951000,0.999146,-0.032959,0.025391,-0.000732,-0.003906,0.019531,0.042969,12.396462,,,
14981324000,0.999146,-0.032959,0.025391,-0.000732,-0.003906,0.019531,0.042969,12.407835,,,
14999778000,0.999146,-0.032898,0.02533,-0.000732,-0.003906,0.019531,0.042969,12.426289,,,
15020019000,0.999146,-0.032837,0.02533,-0.000732,-0.003906,-0.019531,-0.035156,12.44653,,,
15045688000,0.999146,-0.032898,0.025391,-0.000732,-0.003906,-0.066406,-0.035156,12.472199,,,
15060142000,0.999146,-0.032898,0.025391,-0.000732,0.039062,0.050781,0.042969,12.486653,,,
15082073000,0.999146,-0.032898,0.025391,-0.000732,-0.003906,-0.027344,-0.003906,12.508584,3.95,1.56,2.89
15100640000,0.999146,-0.032837,0.02533,-0.000732,-0.003906,0.011719,-0.003906,12.527151,,,
15119683000,0.999146,-0.032837,0.025391,-0.000732,-0.003906,0.011719,-0.003906,12.546194,,,
15139369000,0.999146,-0.032898,0.025391,-0.000671,-0.003906,-0.027344,-0.003906,12.56588,,,
15169304000,0.999146,-0.032898,0.025391,-0.000732,-0.003906,0.011719,-0.003906,12.595815,,,
15179280000,0.999146,-0.032898,0.025391,-0.000671,-0.003906,-0.027344,-0.003906,12.605791,,,
15199702000,0.999146,-0.032837,0.025391,-0.000671,0.003906,-0.027344,-0.003906,12.626213,,,
15220329000,0.999146,-0.032837,0.025391,-0.000671,0.039062,0.011719,0.035156,12.64684,,,
15245559000,0.999146,-0.032837,0.025391,-0.000671,-0.003906,0.011719,-0.003906,12.67207,,,
15259614000,0.999146,-0.032837,0.025391,-0.000732,-0.003906,0.011719,-0.003906,12.686125,,,
15280055000,0.999146,-0.032898,0.025391,-0.000671,-0.003906,0.011719,-0.003906,12.706566,3.91,1.5,2.91
15309001000,0.999146,-0.032837,0.025391,-0.000671,-0.003906,-0.027344,-0.003906,12.735512,,,
15325687000,0.999146,-0.032898,0.025391,-0.000671,-0.003906,0.011719,-0.003906,12.752198,,,
15338634000,0.999146,-0.032898,0.025391,-0.000671,-0.003906,0.011719,-0.003906,12.765145,,,
15359585000,0.999146,-0.032898,0.025391,-0.000671,-0.003906,0.019531,-0.003906,12.786096,,,
15391076000,0.999146,-0.032837,0.02533,-0.000671,-0.003906,-0.027344,0.035156,12.817587,,,
15398476000,0.999146,-0.032837,0.02533,-0.000671,-0.003906,0.011719,-0.003906,12.824987,,,
15419400000,0.999146,-0.03302,0.02533,-0.000427,0.261719,-0.140625,0.035156,12.845911,,,
15438742000,0.999084,-0.033813,0.025513,0.001038,0.90625,-0.308594,0.035156,12.865253,,,
15458947000,0.999084,-0.031738,0.02832,0.006348,2.09375,0.183594,0.570312,12.885458,,,
15479815000,0.999146,-0.027039,0.029602,0.011047,1.855469,0.847656,-3.109375,12.906326,3.92,1.56,2.91
15498981000,0.999329,-0.022034,0.028442,0.009033,0.386719,-0.765625,-1.429688,12.925492,,,
15518408000,0.99939,-0.016235,0.029541,0.006042,-0.96875,0.511719,3.734375,12.944919,,,
15538906000,0.999451,-0.016052,0.028137,0.004517,0.410156,-0.585938,-3.660156,12.965417,,,
15569027000,0.999451,-0.016113,0.02832,0.004639,-0.832031,-0.15625,-1.207031,12.995538,,,
15578487000,0.999451,-0.015808,0.028687,0.004578,-0.6875,0.464844,0.324219,13.004998,,,
15598768000,0.999451,-0.015747,0.028625,0.004639,-0.566406,0.113281,-0.976562,13.025279,,,
15627829000,0.999451,-0.015686,0.028625,0.004761,-0.496094,0.160156,-0.097656,13.05434,,,
15637608000,0.999451,-0.015808,0.028564,0.004822,-0.3125,-0.03125,-0.058594,13.064119,,,
15658308000,0.999451,-0.015869,0.028564,0.005005,-0.042969,-0.109375,-0.058594,13.084819,,,
15678148000,0.999451,-0.01593,0.028503,0.005127,0.070312,0.007812,-0.019531,13.104659,3.84,1.56,2.91
15707414000,0.999451,-0.015991,0.028564,0.00531,0.179688,0.042969,-0.097656,13.133925,,,
15724213000,0.999451,-0.015991,0.028503,0.00531,0.179688,0.050781,-0.210938,13.150724,,,
15738041000,0.999451,-0.015991,0.028442,0.005371,0.214844,0.128906,0.09375,13.164552,,,
15758144000,0.999451,-0.01593,0.02832,0.005127,0.207031,0.207031,0.054688,13.184655,,,
15777669000,0.999451,-0.01593,0.028259,0.004944,0.398438,-0.222656,0.09375,13.20418,,,
15800149000,0.999451,-0.015625,0.028198,0.004639,0.277344,0.015625,0.132812,13.22666,,,
15817810000,0.999512,-0.015564,0.027954,0.004028,0.007812,0.089844,-0.136719,13.244321,,,
15837885000,0.999512,-0.015503,0.027771,0.003662,-0.265625,-0.222656,0.019531,13.264396,,,
15857496000,0.999512,-0.015442,0.027649,0.003479,-0.230469,0.320312,0.09375,13.284007,,,
15878000000,0.999512,-0.015564,0.027466,0.003357,0.148438,0.089844,0.132812,13.304511,3.85,1.56,2.91
15897263000,0.999512,-0.015686,0.027344,0.003357,0.03125,-0.140625,-0.097656,13.323774,,,
15917961000,0.999512,-0.015747,0.027222,0.003174,0.253906,0.089844,-0.175781,13.344472,,,
15947161000,0.999512,-0.015869,0.026978,0.002869,-0.023438,-0.332031,0.054688,13.373672,,,
15957134000,0.999512,-0.015808,0.026978,0.002808,-0.097656,-0.140625,0.171875,13.383645,,,
15977489000,0.999512,-0.015564,0.026733,0.002441,-0.136719,-0.140625,0.019531,13.404,,,
16006892000,0.999512,-0.015564,0.026672,0.002197,-0.328125,-0.253906,0.210938,13.433403,,,
16016930000,0.999512,-0.015625,0.026611,0.002197,-0.144531,0.128906,-0.210938,13.443441,,,
16037206000,0.999512,-0.015686,0.02655,0.002258,-0.871094,-0.023438,0.132812,13.463717,,,
16058355000,0.999512,-0.015625,0.026489,0.002197,-0.460938,0.359375,-0.097656,13.484866,,,
16077055000,0.999512,-0.015808,0.026306,0.002075,-0.613281,0.089844,-0.175781,13.503566,,,
16097407000,0.999512,-0.015686,0.026123,0.001953,-0.074219,-0.015625,-0.058594,13.523918,3.91,1.56,2.89
16117395000,0.999512,-0.015747,0.02594,0.00177,0.070312,0.089844,0.019531,13.543906,,,
16137204000,0.999573,-0.015625,0.025818,0.001587,-0.238281,-0.140625,0.054688,13.563715,,,
16157266000,0.999573,-0.015686,0.025635,0.001465,-0.550781,-0.023438,-0.019531,13.583777,,,
16185952000,0.999573,-0.015625,0.025574,0.001465,-0.820312,0.050781,-0.210938,13.612463,,,
16196401000,0.999573,-0.015625,0.025574,0.001465,-0.859375,0.089844,0.132812,13.622912,,,
16226433000,0.999573,-0.015625,0.025513,0.001404,-0.667969,0.050781,0.054688,13.652944,,,
16236330000,0.999573,-0.015625,0.025513,0.001404,-0.550781,0.015625,-0.019531,13.662841,,,
16257092000,0.999573,-0.015625,0.025513,0.001465,-0.089844,0.015625,-0.019531,13.683603,,,
16286125000,0.999573,-0.015625,0.025513,0.001465,-0.082031,0.015625,-0.019531,13.712636,3.89,1.57,2.91
16296192000,0.999573,-0.015625,0.025513,0.001465,-0.121094,0.015625,0.027344,13.722703,,,
16317160000,0.999573,-0.015625,0.025513,0.001465,-0.121094,0.050781,-0.011719,13.743671,,,
16337253000,0.999573,-0.015625,0.025513,0.001465,-0.082031,0.015625,-0.011719,13.763764,,,
16356633000,0.999573,-0.015625,0.025513,0.001465,-0.121094,0.015625,0.027344,13.783144,,,
16377020000,0.999573,-0.015625,0.025513,0.001465,-0.082031,0.015625,-0.011719,13.803531,,,
16397052000,0.999573,-0.015564,0.025513,0.001465,-0.121094,-0.023438,-0.011719,13.823563,,,
16425984000,0.999573,-0.015625,0.025513,0.001465,-0.074219,0.015625,-0.050781,13.852495,,,
16436014000,0.999573,-0.015625,0.025513,0.001404,-0.074219,0.015625,-0.011719,13.862525,,,
16456686000,0.999573,-0.015564,0.025513,0.001404,-0.074219,0.015625,-0.011719,13.883197,,,
16485377000,0.999573,-0.015564,0.025513,0.001404,-0.074219,0.050781,-0.011719,13.911888,3.87,1.6,2.9
16495435000,0.999573,-0.015564,0.025513,0.001404,-0.113281,0.050781,-0.011719,13.921946,,,
16525815000,0.999573,-0.015564,0.025513,0.001465,-0.074219,0.015625,-0.011719,13.952326,,,
16545776000,0.999573,-0.015564,0.025513,0.001404,-0.074219,0.015625,-0.011719,13.972287,,,
16555699000,0.999573,-0.015564,0.025513,0.001404,-0.113281,0.050781,-0.011719,13.98221,,,
16576623000,0.999573,-0.015625,0.025513,0.001404,-0.113281,0.015625,-0.011719,14.003134,,,
16605734000,0.999573,-0.015625,0.025513,0.001404,-0.011719,0.027344,-0.003906,14.032245,,,
16615334000,0.999573,-0.015625,0.025513,0.001404,0.027344,-0.007812,-0.003906,14.041845,,,
16636770000,0.999573,-0.015625,0.025513,0.001404,-0.011719,-0.007812,-0.003906,14.063281,,,
16656727000,0.999573,-0.015625,0.025513,0.001343,0.027344,0.027344,-0.003906,14.083238,,,
16680759000,0.999573,-0.015625,0.025513,0.001343,0.027344,-0.007812,-0.003906,14.10727,,,
16696336000,0.999573,-0.015625,0.025574,0.001343,-0.011719,-0.007812,0.035156,14.122847,3.86,1.55,2.89
16716672000,0.999573,-0.015625,0.025574,0.001343,0.027344,-0.007812,-0.003906,14.143183,,,
16736791000,0.999573,-0.015625,0.025513,0.001343,0.027344,-0.007812,-0.003906,14.163302,,,
16764694000,0.999573,-0.015625,0.025513,0.001343,0.027344,-0.007812,0.035156,14.191205,,,
16775271000,0.999573,-0.015625,0.025513,0.001404,0.027344,0.027344,-0.003906,14.201782,,,
16796595000,0.999573,-0.015625,0.025574,0.001404,-0.011719,-0.007812,-0.003906,14.223106,,,
16817268000,0.999573,-0.015625,0.025574,0.001404,-0.011719,-0.007812,-0.003906,14.243779,,,
16845271000,0.999573,-0.015564,0.025574,0.001404,-0.011719,-0.007812,0.035156,14.271782,,,
16855513000,0.999573,-0.015564,0.025574,0.001404,-0.011719,-0.007812,0.035156,14.282024,,,
16876376000,0.999573,-0.015564,0.025574,0.001404,0.027344,-0.007812,0.035156,14.302887,,,
16904630000,0.999573,-0.015564,0.025635,0.001404,-0.011719,-0.007812,0.035156,14.331141,3.85,1.59,2.92
16915306000,0.999573,-0.015564,0.025574,0.001404,0.027344,-0.007812,-0.042969,14.341817,,,
16944397000,0.999573,-0.015564,0.025574,0.001404,0.027344,-0.007812,-0.003906,14.370908,,,
16964509000,0.999573,-0.015564,0.025574,0.001343,-0.011719,0.027344,-0.003906,14.39102,,,
16984561000,0.999573,-0.015564,0.025574,0.001343,-0.011719,-0.007812,-0.003906,14.411072,,,
16995279000,0.999573,-0.015564,0.025574,0.001343,-0.011719,0.027344,-0.003906,14.42179,,,
17024219000,0.999573,-0.015564,0.025635,0.001343,0.027344,-0.007812,-0.003906,14.45073,,,
17044399000,0.999573,-0.015564,0.025635,0.001343,0.027344,-0.007812,-0.003906,14.47091,,,
17064410000,0.999573,-0.015503,0.025635,0.001404,-0.011719,-0.007812,-0.003906,14.490921,,,
17075205000,0.999573,-0.015503,0.025635,0.001404,0.027344,-0.007812,-0.003906,14.501716,,,
17104489000,0.999573,-0.015503,0.025635,0.001343,0.019531,-0.007812,-0.003906,14.531,3.86,1.59,2.88
17121101000,0.999573,-0.015503,0.025635,0.001343,0.019531,-0.007812,-0.003906,14.547612,,,
17149236000,0.999573,-0.015503,0.025635,0.001343,0.019531,-0.007812,0.035156,14.575747,,,
17163557000,0.999573,-0.015503,0.025635,0.001343,0.019531,-0.007812,0.035156,14.590068,,,
17184321000,0.999573,-0.015503,0.025635,0.001343,0.019531,-0.007812,-0.003906,14.610832,,,
17195309000,0.999573,-0.015503,0.025635,0.001343,0.019531,-0.007812,-0.003906,14.62182,,,
17223820000,0.999573,-0.015503,0.025635,0.001343,-0.019531,0.0,-0.003906,14.650331,,,
17243386000,0.999573,-0.015503,0.025635,0.001343,-0.019531,0.0,-0.003906,14.669897,,,
17264450000,0.999573,-0.015503,0.025635,0.001343,0.019531,0.0,0.035156,14.690961,,,
17283553000,0.999573,-0.015503,0.025635,0.001343,0.019531,0.0,0.035156,14.710064,3.89,1.56,2.9
17304352000,0.999573,-0.015503,0.025635,0.001343,0.019531,0.0,0.035156,14.730863,,,
17323951000,0.999573,-0.015503,0.025635,0.001343,0.019531,0.0,-0.003906,14.750462,,,
17343356000,0.999573,-0.015442,0.025635,0.001343,0.011719,0.0,0.035156,14.769867,,,
17365050000,0.999573,-0.015442,0.025635,0.001343,0.011719,0.0,0.035156,14.791561,,,
17383291000,0.999573,-0.015442,0.025635,0.001343,0.011719,0.0,0.027344,14.809802,,,
17403259000,0.999573,-0.015503,0.025635,0.001343,0.011719,0.0,-0.011719,14.82977,,,
17423762000,0.999573,-0.015442,0.025635,0.001343,-0.027344,0.0,-0.011719,14.850273,,,
17442832000,0.999573,-0.015442,0.025635,0.001343,0.011719,0.0,0.027344,14.869343,,,
17463161000,0.999573,-0.015381,0.025635,0.001343,-0.027344,0.0,-0.011719,14.889672,,,
17487121000,0.999573,-0.015381,0.025635,0.001343,0.011719,0.0,-0.011719,14.913632,3.84,1.55,2.88
17502817000,0.999573,-0.015381,0.025635,0.001343,-0.027344,0.0,-0.011719,14.929328,,,
17523548000,0.999573,-0.015442,0.025635,0.001343,-0.027344,0.0,-0.011719,14.950059,,,
17542914000,0.999573,-0.015442,0.025635,0.001343,-0.019531,0.0,0.027344,14.969425,,,
17562737000,0.999573,-0.015442,0.025635,0.001343,-0.019531,0.0,0.027344,14.989248,,,
17593117000,0.999573,-0.015381,0.025635,0.001343,-0.019531,0.0,-0.011719,15.019628,,,
17602647000,0.999573,-0.015381,0.025635,0.001343,0.019531,0.0,-0.003906,15.029158,,,
17623155000,0.999573,-0.015381,0.025635,0.001343,0.019531,0.0,-0.003906,15.049666,,,
17643518000,0.999573,-0.015381,0.025635,0.001343,0.019531,0.0,-0.003906,15.070029,,,
17668879000,0.999573,-0.015381,0.025635,0.001343,0.019531,0.0,-0.003906,15.09539,,,
17682715000,0.999573,-0.015442,0.025635,0.001343,-0.019531,0.0,0.035156,15.109226,,,
17704771000,0.999573,-0.015442,0.025635,0.001343,0.019531,0.0,0.035156,15.131282,3.86,1.55,2.88
17722269000,0.999573,-0.015442,0.025635,0.001343,0.019531,0.0,-0.003906,15.14878,,,
17744748000,0.999573,-0.015442,0.025635,0.001343,-0.019531,0.0,-0.003906,15.171259,,,
17765504000,0.999573,-0.015381,0.025635,0.001343,0.019531,0.0,-0.003906,15.192015,,,
17782500000,0.999573,-0.015381,0.025635,0.001343,-0.019531,0.035156,0.035156,15.209011,,,
17801861000,0.999573,-0.015381,0.025635,0.001343,0.019531,0.0,-0.003906,15.228372,,,
17827540000,0.999573,-0.015381,0.025635,0.001343,0.019531,0.027344,-0.003906,15.254051,,,
17841868000,0.999573,-0.015381,0.025635,0.001343,0.019531,-0.007812,-0.003906,15.268379,,,
17861661000,0.999573,-0.015381,0.025635,0.001343,0.019531,-0.007812,0.035156,15.288172,,,
17891887000,0.999573,-0.015381,0.025635,0.001343,-0.019531,-0.007812,-0.003906,15.318398,3.92,1.53,2.91
17902288000,0.999573,-0.015381,0.025635,0.001343,0.019531,-0.007812,-0.003906,15.328799,,,
17921371000,0.999573,-0.015381,0.025635,0.001343,0.019531,-0.007812,-0.003906,15.347882,,,
17942339000,0.999573,-0.015381,0.025635,0.001343,0.019531,-0.007812,0.035156,15.36885,,,
17968636000,0.999573,-0.015381,0.025635,0.001343,-0.019531,-0.007812,-0.003906,15.395147,,,
17981370000,0.999573,-0.015381,0.025635,0.001343,0.019531,-0.007812,-0.003906,15.407881,,,
18001968000,0.999573,-0.015381,0.025635,0.001343,0.019531,0.027344,-0.003906,15.428479,,,
18024896000,0.999573,-0.015381,0.025635,0.001343,0.019531,-0.007812,-0.003906,15.451407,,,
18041520000,0.999573,-0.015381,0.025635,0.001343,0.019531,-0.007812,0.035156,15.468031,,,
18061368000,0.999573,-0.015381,0.025635,0.001343,0.019531,-0.007812,-0.003906,15.487879,,,
18086419000,0.999573,-0.015381,0.025635,0.001343,0.019531,-0.007812,-0.003906,15.51293,3.85,1.58,2.9
18100951000,0.999573,-0.015381,0.025635,0.001343,0.019531,-0.007812,0.035156,15.527462,,,
18120989000,0.999573,-0.015381,0.025635,0.001343,0.019531,-0.007812,0.035156,15.5475,,,
18145894000,0.999573,-0.015381,0.025635,0.001343,0.019531,-0.007812,-0.003906,15.572405,,,
18160687000,0.999573,-0.015381,0.025635,0.001343,-0.019531,-0.007812,-0.003906,15.587198,,,
18181053000,0.999573,-0.015381,0.025635,0.001343,0.019531,-0.007812,-0.003906,15.607564,,,
18200754000,0.999573,-0.015381,0.025635,0.001343,0.011719,0.035156,0.035156,15.627265,,,
18220642000,0.999573,-0.015381,0.025635,0.001343,0.011719,-0.007812,-0.003906,15.647153,,,
18250551000,0.999573,-0.015381,0.025635,0.001343,0.011719,0.027344,-0.003906,15.677062,,,
18260872000,0.999573,-0.015381,0.025635,0.001343,0.011719,-0.007812,0.035156,15.687383,,,
18280424000,0.999573,-0.015381,0.025635,0.001343,-0.027344,-0.007812,0.035156,15.706935,,,
18302543000,0.999573,-0.015381,0.025635,0.001343,0.011719,-0.007812,0.035156,15.729054,3.87,1.57,2.9
18320480000,0.999573,-0.015381,0.025635,0.001343,0.011719,-0.007812,-0.003906,15.746991,,,
18341027000,0.999573,-0.015381,0.025635,0.001343,0.011719,-0.007812,-0.003906,15.767538,,,
18367533000,0.999573,-0.015381,0.025635,0.001343,-0.027344,0.0,-0.003906,15.794044,,,
18380027000,0.999573,-0.015381,0.025635,0.001343,0.011719,0.0,0.035156,15.806538,,,
18400155000,0.999573,-0.015381,0.025635,0.001343,0.011719,0.0,-0.003906,15.826666,,,
18430626000,0.999573,-0.015381,0.025635,0.001343,-0.019531,0.0,-0.003906,15.857137,,,
18440757000,0.999573,-0.015381,0.025635,0.001343,-0.019531,0.0,-0.003906,15.867268,,,
18462772000,0.999573,-0.015381,0.025635,0.001343,0.019531,0.035156,0.035156,15.889283,,,
18490005000,0.999573,-0.015381,0.025635,0.001343,0.019531,0.0,-0.003906,15.916516,3.88,1.59,2.9
18506151000,0.999573,-0.015381,0.025635,0.001343,0.019531,0.027344,-0.003906,15.932662,,,
18519605000,0.999573,-0.015381,0.025635,0.001343,0.019531,-0.007812,0.035156,15.946116,,,
18540100000,0.999573,-0.015381,0.025635,0.001343,-0.019531,0.027344,-0.003906,15.966611,,,
18559630000,0.999573,-0.015381,0.025635,0.001343,-0.019531,-0.007812,-0.003906,15.986141,,,
18579710000,0.999573,-0.015381,0.025635,0.001343,0.019531,-0.007812,0.035156,16.006221,,,
18603817000,0.999573,-0.015381,0.025635,0.001343,-0.019531,-0.007812,-0.003906,16.030328,,,
18619716000,0.999573,-0.015381,0.025635,0.001343,0.019531,-0.007812,-0.003906,16.046227,,,
18639599000,0.999573,-0.015381,0.025635,0.001343,0.019531,-0.007812,-0.003906,16.06611,,,
18660000000,0.999573,-0.015381,0.025635,0.001343,0.019531,-0.007812,-0.003906,16.086511,,,
18685199000,0.999573,-0.015381,0.025635,0.001343,0.019531,-0.007812,0.035156,16.11171,3.89,1.54,2.87
18699856000,0.999573,-0.015381,0.025635,0.001343,0.019531,-0.007812,-0.003906,16.126367,,,
18719602000,0.999573,-0.015381,0.025635,0.001343,0.019531,-0.007812,-0.003906,16.146113,,,
18739128000,0.999573,-0.015381,0.025635,0.001343,0.019531,0.0,-0.003906,16.165639,,,
18760176000,0.999573,-0.015381,0.025635,0.001343,0.019531,0.0,0.035156,16.186687,,,
18790163000,0.999573,-0.015381,0.025635,0.001343,-0.019531,0.0,-0.003906,16.216674,,,
18799277000,0.999573,-0.015381,0.025635,0.001343,-0.019531,0.0,-0.003906,16.225788,,,
18819731000,0.999573,-0.015381,0.025635,0.001343,0.019531,0.0,-0.003906,16.246242,,,
18849676000,0.999573,-0.015381,0.025635,0.001343,-0.019531,0.0,-0.003906,16.276187,,,
18859413000,0.999573,-0.015381,0.025635,0.001343,0.019531,0.035156,-0.003906,16.285924,,,
18879093000,0.999573,-0.015381,0.025635,0.001343,-0.019531,0.0,0.035156,16.305604,,,
18904205000,0.999573,-0.015381,0.025635,0.001343,-0.019531,0.035156,0.035156,16.330716,3.88,1.55,2.89
18918767000,0.999573,-0.015381,0.025635,0.001343,-0.019531,-0.007812,-0.003906,16.345278,,,
18939026000,0.999573,-0.015381,0.025635,0.001343,0.019531,-0.007812,-0.003906,16.365537,,,
18968968000,0.999573,-0.015381,0.025635,0.001343,-0.019531,-0.007812,-0.003906,16.395479,,,
18984538000,0.999573,-0.015381,0.025635,0.001343,0.019531,-0.007812,-0.003906,16.411049,,,
18999168000,0.999573,-0.015381,0.025635,0.001343,0.019531,-0.007812,0.035156,16.425679,,,
19018396000,0.999573,-0.015381,0.025635,0.001343,0.054688,-0.007812,-0.003906,16.444907,,,
19038414000,0.999573,-0.015381,0.025635,0.001343,0.019531,-0.007812,-0.003906,16.464925,,,
19058304000,0.999573,-0.015381,0.025635,0.001343,-0.019531,-0.007812,-0.003906,16.484815,,,
19078751000,0.999573,-0.015381,0.025635,0.001343,0.019531,-0.007812,0.035156,16.505262,,,
19108698000,0.999573,-0.015381,0.025635,0.001343,-0.019531,-0.007812,-0.003906,16.535209,3.87,1.57,2.89
19118236000,0.999573,-0.015381,0.025635,0.001343,0.019531,0.0,-0.042969,16.544747,,,
19138487000,0.999573,-0.015381,0.025635,0.001343,-0.019531,0.0,-0.042969,16.564998,,,
19164377000,0.999573,-0.015381,0.025635,0.001343,0.019531,0.0,-0.003906,16.590888,,,
19180428000,0.999573,-0.015381,0.025635,0.001343,0.019531,0.0,-0.003906,16.606939,,,
19198149000,0.999573,-0.015381,0.025635,0.001343,0.019531,-0.007812,-0.003906,16.62466,,,
19219309000,0.999573,-0.015381,0.025635,0.001343,-0.019531,-0.007812,-0.003906,16.64582,,,
19243979000,0.999573,-0.015381,0.025635,0.001343,0.019531,-0.007812,-0.003906,16.67049,,,
19257930000,0.999573,-0.015381,0.025635,0.001343,0.019531,-0.007812,0.003906,16.684441,,,
19278045000,0.999573,-0.015381,0.025635,0.001343,0.019531,-0.007812,0.003906,16.704556,,,
19309319000,0.999573,-0.015381,0.025635,0.001343,0.019531,-0.007812,0.003906,16.73583,3.89,1.56,2.89
19317979000,0.999573,-0.015381,0.025635,0.001343,0.019531,-0.007812,0.003906,16.74449,,,
19338540000,0.999573,-0.015381,0.025635,0.001343,0.019531,0.027344,0.003906,16.765051,,,
19357716000,0.999573,-0.015381,0.025635,0.001343,0.019531,0.027344,0.042969,16.784227,,,
19387862000,0.999573,-0.015381,0.025635,0.001343,-0.019531,-0.007812,0.003906,16.814373,,,
19397927000,0.999573,-0.015381,0.025635,0.001343,0.019531,-0.007812,0.042969,16.824438,,,
19417885000,0.999573,-0.015381,0.025635,0.001343,0.019531,-0.007812,0.042969,16.844396,,,
19448217000,0.999573,-0.015381,0.025635,0.001343,-0.019531,-0.007812,-0.003906,16.874728,,,
19462458000,0.999573,-0.015381,0.025635,0.001343,-0.019531,-0.007812,-0.003906,16.888969,,,
19477854000,0.999573,-0.015381,0.025635,0.001343,-0.019531,-0.007812,-0.003906,16.904365,,,
19497526000,0.999573,-0.015381,0.025635,0.001343,0.019531,-0.007812,0.035156,16.924037,3.9,1.57,2.87
19527215000,0.999573,-0.015381,0.025635,0.001343,-0.019531,-0.007812,-0.003906,16.953726,,,
19537412000,0.999573,-0.015381,0.025635,0.001343,0.019531,-0.007812,-0.003906,16.963923,,,
19557454000,0.999573,-0.015381,0.025635,0.001343,0.019531,-0.007812,-0.003906,16.983965,,,
19589741000,0.999573,-0.015381,0.025635,0.001343,0.019531,-0.007812,-0.003906,17.016252,,,
19597300000,0.999573,-0.015381,0.025635,0.001343,-0.019531,-0.007812,0.035156,17.023811,,,
19617269000,0.999573,-0.015381,0.025635,0.001343,0.019531,-0.007812,0.035156,17.04378,,,
19640565000,0.999573,-0.015381,0.025635,0.001343,0.019531,-0.007812,-0.003906,17.067076,,,
19657028000,0.999573,-0.015381,0.025635,0.001343,0.019531,-0.007812,-0.003906,17.083539,,,
19677269000,0.999573,-0.015381,0.025635,0.001343,-0.019531,0.0,0.035156,17.10378,,,
19707456000,0.999573,-0.015381,0.025635,0.001343,-0.019531,0.0,-0.011719,17.133967,3.91,1.58,2.9
19717083000,0.999573,-0.015381,0.025635,0.001343,-0.019531,0.0,-0.011719,17.143594,,,
19737472000,0.999573,-0.015381,0.025635,0.001343,0.019531,0.0,-0.011719,17.163983,,,
19766567000,0.999573,-0.015381,0.025635,0.001343,0.019531,0.0,-0.003906,17.193078,,,
19777063000,0.999573,-0.015381,0.025635,0.001343,-0.019531,0.0,-0.003906,17.203574,,,
19797249000,0.999573,-0.015381,0.025635,0.001343,-0.019531,0.0,0.035156,17.22376,,,
19823747000,0.999573,-0.015381,0.025635,0.001343,-0.019531,0.0,-0.003906,17.250258,,,
19837094000,0.999573,-0.015381,0.025635,0.001343,0.019531,0.0,0.035156,17.263605,,,
19857202000,0.999573,-0.015381,0.025635,0.001343,0.019531,0.0,-0.003906,17.283713,,,
19886517000,0.999573,-0.015381,0.025635,0.001343,-0.019531,0.0,-0.003906,17.313028,3.86,1.57,2.87
19898161000,0.999573,-0.015381,0.025635,0.001343,-0.019531,0.0,0.035156,17.324672,,,
19917287000,0.999573,-0.015381,0.025635,0.001343,0.019531,0.0,0.035156,17.343798,,,
19946002000,0.999573,-0.015381,0.025635,0.001343,0.019531,0.0,-0.011719,17.372513,,,
19956139000,0.999573,-0.015381,0.025635,0.001343,0.019531,0.0,-0.011719,17.38265,,,
19985983000,0.999573,-0.015381,0.025635,0.001343,0.019531,0.0,-0.011719,17.412494,,,
19998970000,0.999573,-0.015381,0.025635,0.001343,0.019531,0.0,-0.011719,17.425481,,,
20026266000,0.999573,-0.015381,0.025635,0.001343,0.019531,0.0,-0.011719,17.452777,,,
20041885000,0.999573,-0.015381,0.025635,0.001343,0.019531,0.0,-0.011719,17.468396,,,
20056689000,0.999573,-0.015381,0.025635,0.001343,-0.019531,0.035156,0.027344,17.4832,,,
20076803000,0.999573,-0.015381,0.025635,0.001343,0.019531,0.0,-0.011719,17.503314,,,
20105975000,0.999573,-0.015564,0.025696,0.001587,0.84375,0.113281,0.027344,17.532486,3.88,1.55,2.89
20116195000,0.999573,-0.015625,0.025696,0.001709,0.875,-0.039062,-0.042969,17.542706,,,
20136630000,0.999573,-0.015747,0.025696,0.002014,0.746094,-0.078125,0.109375,17.563141,,,
20165389000,0.999573,-0.015991,0.025452,0.002075,0.511719,0.121094,0.027344,17.5919,,,
20175511000,0.999573,-0.016113,0.025208,0.001953,0.289062,-0.183594,-0.011719,17.602022,,,
20197256000,0.999573,-0.015991,0.024841,0.001526,0.3125,0.28125,0.0625,17.623767,,,
20225801000,0.999573,-0.01593,0.024292,0.001099,-0.285156,0.0,-0.011719,17.652312,,,
20235700000,0.999573,-0.015991,0.023987,0.001099,-0.515625,-0.386719,0.140625,17.662211,,,
20266092000,0.999634,-0.016174,0.022644,0.000427,-0.722656,-0.230469,-0.167969,17.692603,,,
20275354000,0.999634,-0.016296,0.021851,0.000183,-0.777344,0.191406,-0.128906,17.701865,,,
20296752000,0.999634,-0.016785,0.019836,-0.000671,-0.867188,0.351562,-0.082031,17.723263,3.89,1.58,2.89
20323598000,0.999695,-0.016174,0.018738,-0.001831,-0.210938,0.28125,-0.695312,17.750109,,,
20336649000,0.999695,-0.01532,0.018066,-0.001343,-0.472656,-0.761719,-0.65625,17.76316,,,
20356886000,0.999695,-0.015381,0.017944,-0.000488,-0.324219,-0.890625,0.417969,17.783397,,,
20376315000,0.999695,-0.01532,0.017883,-0.000427,-0.480469,1.820312,-0.234375,17.802826,,,
20413276000,0.999695,-0.015198,0.017822,-0.000427,0.285156,0.066406,-0.082031,17.839787,,,
20424778000,0.999756,-0.015137,0.017822,-0.000427,0.242188,0.058594,0.035156,17.851289,,,
20441344000,0.999756,-0.014954,0.0177,-0.000427,0.585938,0.019531,-0.082031,17.867855,,,
20456464000,0.999756,-0.015015,0.0177,-0.000427,0.507812,-0.054688,-0.082031,17.882975,,,
20484707000,0.999756,-0.014893,0.0177,-0.000488,0.011719,0.058594,0.035156,17.911218,,,
20495293000,0.999756,-0.014893,0.017761,-0.000488,-0.066406,-0.023438,0.101562,17.921804,3.9,1.58,2.91
20524724000,0.999756,-0.014771,0.017761,-0.000549,-0.140625,0.011719,0.140625,17.951235,,,
20541290000,0.999756,-0.014709,0.017761,-0.000549,-0.296875,-0.0625,0.101562,17.967801,,,
20569815000,0.999756,-0.014954,0.017761,-0.00061,-0.753906,0.011719,0.027344,17.996326,,,
20584578000,0.999756,-0.014832,0.0177,-0.00061,-0.910156,0.167969,0.179688,18.011089,,,
20607186000,0.999756,-0.014771,0.0177,-0.00061,-0.601562,0.050781,0.027344,18.033697,,,
20624270000,0.999756,-0.014771,0.017639,-0.00061,-0.5625,-0.023438,-0.128906,18.050781,,,
20647229000,0.999756,-0.014832,0.017639,-0.00061,-0.753906,0.089844,0.0625,18.07374,,,
20664341000,0.999756,-0.014832,0.017639,-0.00061,-0.371094,0.011719,0.0625,18.090852,,,
20684716000,0.999756,-0.014832,0.017639,-0.00061,-0.339844,-0.023438,-0.011719,18.111227,,,
20704406000,0.999756,-0.014954,0.017578,-0.00061,0.078125,-0.015625,0.027344,18.130917,3.9,1.6,2.9
20733949000,0.999756,-0.014954,0.017639,-0.00061,0.691406,-0.054688,0.070312,18.16046,,,
20750939000,0.999756,-0.014954,0.017517,-0.00061,0.308594,0.058594,-0.011719,18.17745,,,
20764160000,0.999756,-0.014954,0.017639,-0.00061,0.507812,0.058594,0.140625,18.190671,,,
20784316000,0.999756,-0.014832,0.017578,-0.000671,-0.105469,0.019531,-0.011719,18.210827,,,
20804106000,0.999756,-0.014771,0.017578,-0.000671,-0.257812,0.011719,-0.089844,18.230617,,,
20828978000,0.999756,-0.014771,0.017578,-0.000671,-0.332031,0.011719,0.0625,18.255489,,,
20843909000,0.999756,-0.014771,0.017517,-0.000732,-0.640625,0.011719,0.0625,18.27042,,,
20864092000,0.999756,-0.014771,0.017578,-0.000732,-0.632812,-0.101562,-0.089844,18.290603,,,
20883621000,0.999756,-0.014954,0.017639,-0.000732,-0.257812,-0.023438,0.140625,18.310132,,,
20903897000,0.999756,-0.014832,0.017578,-0.000732,-0.488281,-0.09375,-0.050781,18.330408,3.86,1.54,2.89
20923624000,0.999756,-0.014771,0.017517,-0.000732,-0.441406,-0.023438,-0.011719,18.350135,,,
20943502000,0.999756,-0.014832,0.017578,-0.000732,-0.132812,-0.023438,0.027344,18.370013,,,
20968897000,0.999756,-0.014893,0.017578,-0.000732,0.171875,0.050781,-0.011719,18.395408,,,
20983413000,0.999756,-0.014832,0.017578,-0.000732,-0.097656,0.058594,-0.011719,18.409924,,,
21003706000,0.999756,-0.014832,0.017578,-0.000671,-0.019531,-0.054688,-0.050781,18.430217,,,
21033247000,0.999756,-0.014832,0.017578,-0.000732,0.066406,-0.0625,0.0625,18.459758,,,
21050164000,0.999756,-0.014771,0.017578,-0.000732,0.066406,0.011719,0.027344,18.476675,,,
21063667000,0.999756,-0.014832,0.017517,-0.000793,0.066406,0.011719,-0.011719,18.490178,,,
21083119000,0.999756,-0.015015,0.0177,-0.000793,-0.203125,-0.054688,0.101562,18.50963,,,
21102531000,0.999756,-0.014832,0.017517,-0.000793,-0.617188,-0.054688,-0.089844,18.529042,3.82,1.57,2.88
21128908000,0.999756,-0.014832,0.017517,-0.000854,-0.472656,-0.054688,-0.128906,18.555419,,,
21143025000,0.999756,-0.014832,0.017517,-0.000854,-0.164062,0.019531,0.140625,18.569536,,,
21163000000,0.999756,-0.014832,0.017456,-0.000854,-0.042969,0.011719,-0.089844,18.589511,,,
21192648000,0.999756,-0.015076,0.017517,-0.000854,-0.003906,0.097656,-0.050781,18.619159,,,
21203036000,0.999756,-0.015015,0.017578,-0.000854,-0.042969,-0.054688,0.027344,18.629547,,,
21222735000,0.999756,-0.014893,0.017395,-0.000916,-0.886719,0.019531,0.101562,18.649246,,,
21243546000,0.999756,-0.014893,0.017456,-0.000916,-0.769531,-0.015625,-0.050781,18.670057,,,
21263219000,0.999756,-0.014832,0.017456,-0.001038,-0.953125,-0.015625,-0.128906,18.68973,,,
21282783000,0.999756,-0.014832,0.017456,-0.001038,-0.800781,-0.015625,0.027344,18.709294,,,
21302517000,0.999756,-0.014832,0.017395,-0.001038,-0.148438,0.019531,0.027344,18.729028,3.87,1.55,2.87
21323085000,0.999756,-0.014832,0.017395,-0.001038,-0.1875,-0.015625,0.027344,18.749596,,,
21342613000,0.999756,-0.014832,0.017395,-0.001038,-0.140625,-0.015625,0.027344,18.769124,,,
21362723000,0.999756,-0.014893,0.017456,-0.001038,-0.179688,-0.015625,-0.011719,18.789234,,,
21383695000,0.999756,-0.014893,0.017456,-0.001038,-0.179688,0.019531,-0.011719,18.810206,,,
21408833000,0.999756,-0.014893,0.017456,-0.001038,-0.132812,0.019531,0.027344,18.835344,,,
21430949000,0.999756,-0.014893,0.017456,-0.001099,-0.171875,0.019531,0.027344,18.85746,,,
21442493000,0.999756,-0.014832,0.017456,-0.001099,-0.171875,-0.015625,-0.011719,18.869004,,,
21462045000,0.999756,-0.014893,0.017456,-0.001099,-0.171875,-0.015625,-0.011719,18.888556,,,
21482043000,0.999756,-0.014832,0.017456,-0.001099,-0.125,-0.015625,0.027344,18.908554,,,
21508885000,0.999756,-0.014832,0.017456,-0.001099,-0.164062,0.019531,-0.011719,18.935396,3.84,1.6,2.88
21521773000,0.999756,-0.014771,0.017456,-0.001099,-0.164062,0.011719,-0.011719,18.948284,,,
21542278000,0.999756,-0.014771,0.017456,-0.001099,-0.164062,0.011719,-0.011719,18.968789,,,
21562772000,0.999756,-0.014832,0.017517,-0.001099,-0.164062,-0.023438,0.027344,18.989283,,,
21587471000,0.999756,-0.014771,0.017517,-0.001099,-0.195312,-0.023438,0.027344,19.013982,,,
21602417000,0.999756,-0.014771,0.017456,-0.001099,-0.15625,-0.023438,-0.011719,19.028928,,,
21622170000,0.999756,-0.014832,0.017456,-0.001099,-0.15625,0.011719,-0.011719,19.048681,,,
21642315000,0.999756,-0.014832,0.017456,-0.001099,0.03125,-0.007812,-0.011719,19.068826,,,
21665223000,0.999756,-0.014832,0.017456,-0.001099,-0.007812,-0.015625,-0.050781,19.091734,,,
21681897000,0.999756,-0.014771,0.017517,-0.001038,-0.007812,0.027344,-0.011719,19.108408,,,
21701897000,0.999756,-0.014771,0.017517,-0.001099,0.03125,-0.015625,0.027344,19.128408,3.89,1.55,2.89
21724559000,0.999756,-0.014771,0.017517,-0.001099,-0.007812,-0.015625,-0.011719,19.15107,,,
21741742000,0.999756,-0.014771,0.017517,-0.001099,-0.007812,-0.015625,-0.011719,19.168253,,,
21761804000,0.999756,-0.014771,0.017517,-0.001099,-0.007812,0.019531,0.027344,19.188315,,,
21791588000,0.999756,-0.014709,0.017517,-0.001099,0.03125,0.019531,-0.011719,19.218099,,,
21807393000,0.999756,-0.014709,0.017517,-0.001099,0.03125,0.019531,-0.011719,19.233904,,,
21821674000,0.999756,-0.014709,0.017517,-0.001099,-0.007812,0.019531,-0.011719,19.248185,,,
21842255000,0.999756,-0.014771,0.017517,-0.001099,-0.015625,-0.015625,-0.011719,19.268766,,,
21865018000,0.999756,-0.014771,0.017517,-0.00116,-0.015625,-0.015625,0.027344,19.291529,,,
21881366000,0.999756,-0.014771,0.017517,-0.001099,-0.015625,-0.007812,-0.003906,19.307877,,,
21911461000,0.999756,-0.014771,0.017517,-0.001099,-0.015625,-0.015625,0.035156,19.337972,3.87,1.59,2.88
21926826000,0.999756,-0.014771,0.017517,-0.001099,-0.007812,-0.015625,-0.003906,19.353337,,,
21943060000,0.999756,-0.014771,0.017517,-0.001099,-0.007812,-0.015625,-0.003906,19.369571,,,
21961303000,0.999756,-0.014771,0.017456,-0.001099,0.03125,-0.015625,-0.003906,19.387814,,,
21980610000,0.999756,-0.014771,0.017456,-0.00116,-0.007812,0.019531,-0.003906,19.407121,,,
22000778000,0.999756,-0.014771,0.017456,-0.00116,0.03125,-0.015625,-0.003906,19.427289,,,
22021726000,0.999756,-0.014771,0.017456,-0.00116,-0.007812,0.019531,0.035156,19.448237,,,
22049906000,0.999756,-0.014709,0.017456,-0.00116,-0.007812,0.019531,-0.003906,19.476417,,,
22057408000,0.999756,-0.014771,0.017456,-0.00116,-0.007812,0.019531,-0.003906,19.483919,,,
22079156000,0.999756,-0.014709,0.017456,-0.00116,-0.007812,-0.015625,0.035156,19.505667,,,
22100738000,0.999756,-0.014709,0.017456,-0.00116,-0.007812,-0.015625,-0.003906,19.527249,3.88,1.55,2.87
22124514000,0.999756,-0.014709,0.017456,-0.00116,-0.007812,0.019531,-0.003906,19.551025,,,
22136302000,0.999756,-0.014709,0.017456,-0.00116,-0.007812,-0.015625,0.035156,19.562813,,,
22158071000,0.999756,-0.014709,0.017456,-0.001221,-0.007812,0.019531,0.035156,19.584582,,,
22177991000,0.999756,-0.014709,0.017456,-0.001221,-0.007812,0.011719,-0.011719,19.604502,,,
22203307000,0.999756,-0.014709,0.017456,-0.001221,-0.007812,-0.023438,-0.011719,19.629818,,,
22225370000,0.999756,-0.014709,0.017517,-0.001221,-0.007812,0.011719,-0.011719,19.651881,,,
22240014000,0.999756,-0.014709,0.017456,-0.00116,0.03125,0.011719,-0.011719,19.666525,,,
22260190000,0.999756,-0.014648,0.017456,-0.001221,0.03125,-0.023438,-0.011719,19.686701,,,
22280246000,0.999756,-0.014709,0.017456,-0.001221,-0.007812,-0.023438,0.027344,19.706757,,,
22309670000,0.999756,-0.014709,0.017456,-0.001221,-0.007812,-0.023438,-0.011719,19.736181,3.81,1.55,2.88
22320256000,0.999756,-0.014709,0.017456,-0.001221,-0.007812,0.011719,0.027344,19.746767,,,
22339801000,0.999756,-0.014648,0.017456,-0.001221,0.03125,0.011719,0.027344,19.766312,,,
22359853000,0.999756,-0.014648,0.017456,-0.001221,0.03125,-0.023438,0.027344,19.786364,,,
22379889000,0.999756,-0.014648,0.017456,-0.001221,0.03125,-0.023438,-0.011719,19.8064,,,
22409684000,0.999756,-0.014648,0.017517,-0.00116,-0.015625,-0.023438,0.027344,19.836195,,,
22419403000,0.999756,-0.014648,0.017517,-0.001221,-0.015625,0.011719,-0.011719,19.845914,,,
22440675000,0.999756,-0.014648,0.017517,-0.001221,0.023438,-0.023438,-0.011719,19.867186,,,
22469466000,0.999756,-0.014648,0.017517,-0.001221,0.023438,-0.023438,-0.011719,19.895977,,,
22480100000,0.999756,-0.014648,0.017517,-0.001221,-0.015625,-0.023438,-0.050781,19.906611,,,
22499617000,0.999756,-0.014648,0.017517,-0.001221,-0.015625,0.011719,-0.011719,19.926128,3.84,1.56,2.86
22519473000,0.999756,-0.014709,0.017517,-0.001221,-0.015625,0.011719,-0.011719,19.945984,,,
22548974000,0.999756,-0.014648,0.017517,-0.001221,-0.007812,0.011719,0.027344,19.975485,,,
22559747000,0.999756,-0.014648,0.017517,-0.001221,-0.007812,-0.023438,-0.011719,19.986258,,,
22579085000,0.999756,-0.014648,0.017517,-0.001221,-0.007812,-0.023438,-0.011719,20.005596,,,
22601466000,0.999756,-0.014648,0.017517,-0.001221,-0.007812,-0.023438,0.027344,20.027977,,,
22624826000,0.999756,-0.014648,0.017517,-0.001221,-0.007812,-0.023438,0.027344,20.051337,,,
22640894000,0.999756,-0.014648,0.017517,-0.001221,-0.007812,0.019531,-0.011719,20.067405,,,
22662159000,0.999756,-0.014648,0.017517,-0.001221,-0.007812,0.019531,0.027344,20.08867,,,
22679168000,0.999756,-0.014648,0.017517,-0.001221,0.03125,-0.015625,-0.011719,20.105679,,,
22698616000,0.999756,-0.014648,0.017517,-0.001221,-0.007812,0.019531,0.027344,20.125127,3.82,1.57,2.89
22718433000,0.999756,-0.014648,0.017517,-0.001221,-0.007812,0.019531,-0.011719,20.144944,,,
22739975000,0.999756,-0.014648,0.017517,-0.001221,0.03125,0.019531,-0.011719,20.166486,,,
22758394000,0.999756,-0.014648,0.017517,-0.001221,0.03125,-0.015625,-0.011719,20.184905,,,
22778810000,0.999756,-0.014648,0.017517,-0.001221,-0.007812,0.019531,-0.011719,20.205321,,,
22798783000,0.999756,-0.014648,0.017517,-0.001221,-0.007812,-0.023438,0.027344,20.225294,,,
22818747000,0.999756,-0.014648,0.017517,-0.001221,0.03125,0.011719,-0.011719,20.245258,,,
22838191000,0.999756,-0.014648,0.017517,-0.001221,0.03125,0.011719,0.027344,20.264702,,,
22868878000,0.999756,-0.014648,0.017517,-0.001221,-0.015625,-0.023438,0.027344,20.295389,,,
22878189000,0.999756,-0.014648,0.017517,-0.001221,-0.015625,0.011719,-0.011719,20.3047,,,
22899817000,0.999756,-0.014648,0.017517,-0.001221,-0.015625,-0.023438,-0.011719,20.326328,3.84,1.59,2.87
22927986000,0.999756,-0.014648,0.017517,-0.001221,-0.007812,0.011719,0.027344,20.354497,,,
22938271000,0.999756,-0.014648,0.017517,-0.001221,-0.007812,-0.023438,-0.011719,20.364782,,,
22958150000,0.999756,-0.014648,0.017517,-0.001221,0.03125,0.011719,-0.011719,20.384661,,,
22977864000,0.999756,-0.014648,0.017517,-0.001221,-0.007812,-0.015625,-0.011719,20.404375,,,
23003491000,0.999756,-0.014648,0.017517,-0.001221,-0.007812,-0.015625,-0.011719,20.430002,,,
23018334000,0.999756,-0.014648,0.017517,-0.00116,0.03125,-0.015625,-0.011719,20.444845,,,
23038486000,0.999756,-0.014648,0.017456,-0.00116,-0.007812,-0.015625,-0.011719,20.464997,,,
23058912000,0.999756,-0.014648,0.017456,-0.00116,0.03125,-0.015625,-0.011719,20.485423,,,
23083659000,0.999756,-0.014648,0.017456,-0.001221,-0.015625,0.019531,-0.011719,20.51017,,,
23097893000,0.999756,-0.014648,0.017456,-0.00116,-0.015625,-0.015625,-0.003906,20.524404,3.83,1.53,2.87
23118270000,0.999756,-0.014587,0.017456,-0.001221,-0.007812,0.019531,-0.003906,20.544781,,,
23137613000,0.999756,-0.014587,0.017456,-0.001221,0.03125,-0.015625,-0.003906,20.564124,,,
23158382000,0.999756,-0.014587,0.017456,-0.001221,0.03125,0.019531,-0.003906,20.584893,,,
23187653000,0.999756,-0.014587,0.017517,-0.001221,-0.015625,0.019531,0.070312,20.614164,,,
23197912000,0.999756,-0.014587,0.017517,-0.001221,0.023438,0.019531,-0.003906,20.624423,,,
23217486000,0.999756,-0.014526,0.017456,-0.001221,-0.015625,-0.015625,-0.003906,20.643997,,,
23238158000,0.999756,-0.014526,0.017456,-0.001221,-0.015625,-0.015625,-0.003906,20.664669,,,
23267881000,0.999756,-0.014526,0.017517,-0.001221,-0.015625,-0.015625,0.035156,20.694392,,,
23277154000,0.999756,-0.014526,0.017456,-0.001221,-0.015625,0.019531,-0.003906,20.703665,,,
23297262000,0.999756,-0.014526,0.017456,-0.001221,0.023438,-0.015625,-0.003906,20.723773,3.82,1.6,2.86
23317696000,0.999756,-0.014526,0.017456,-0.001221,-0.015625,0.019531,-0.003906,20.744207,,,
23347357000,0.999756,-0.014465,0.017456,-0.001221,-0.015625,-0.015625,-0.003906,20.773868,,,
23357275000,0.999756,-0.014465,0.017456,-0.001221,-0.015625,-0.015625,0.035156,20.783786,,,
23386849000,0.999756,-0.014465,0.017456,-0.001221,-0.015625,0.019531,-0.003906,20.81336,,,
23407565000,0.999756,-0.014465,0.017456,-0.001221,-0.007812,-0.015625,0.035156,20.834076,,,
23424297000,0.999756,-0.014465,0.017456,-0.001221,-0.007812,0.019531,-0.003906,20.850808,,,
23437390000,0.999756,-0.014465,0.017456,-0.001221,-0.007812,-0.015625,-0.003906,20.863901,,,
23457640000,0.999756,-0.014465,0.017456,-0.001221,-0.007812,0.019531,0.035156,20.884151,,,
23486525000,0.999756,-0.014526,0.017456,-0.001221,0.03125,0.019531,0.027344,20.913036,,,
23502832000,0.999756,-0.014526,0.017456,-0.001221,-0.007812,-0.015625,-0.011719,20.929343,3.83,1.59,2.87
23517168000,0.999756,-0.014526,0.017456,-0.001221,-0.007812,-0.015625,-0.011719,20.943679,,,
23537312000,0.999756,-0.014526,0.017456,-0.001221,0.03125,-0.015625,0.027344,20.963823,,,
23566603000,0.999756,-0.014526,0.017456,-0.001221,-0.007812,0.019531,0.027344,20.993114,,,
23576677000,0.999756,-0.014587,0.017456,-0.001221,-0.007812,-0.015625,-0.011719,21.003188,,,
23597070000,0.999756,-0.014526,0.017456,-0.001221,-0.007812,-0.015625,0.027344,21.023581,,,
23626034000,0.999756,-0.014526,0.017456,-0.001221,0.03125,0.019531,-0.011719,21.052545,,,
23643202000,0.999756,-0.014587,0.017456,-0.001221,-0.007812,-0.015625,-0.011719,21.069713,,,
23662422000,0.999756,-0.014587,0.017456,-0.001221,0.03125,0.019531,-0.011719,21.088933,,,
23677715000,0.999756,-0.014587,0.017456,-0.001221,-0.015625,0.019531,-0.011719,21.104226,,,
23697264000,0.999756,-0.014587,0.017456,-0.001221,0.023438,-0.015625,0.027344,21.123775,3.82,1.6,2.86
23716668000,0.999756,-0.014587,0.017456,-0.001221,-0.015625,0.019531,-0.011719,21.143179,,,
23737053000,0.999756,-0.014587,0.017456,-0.001221,-0.015625,0.019531,-0.011719,21.163564,,,
23765590000,0.999756,-0.014587,0.017456,-0.001282,0.023438,-0.015625,-0.011719,21.192101,,,
23775868000,0.999756,-0.014587,0.017456,-0.001282,-0.015625,-0.015625,-0.011719,21.202379,,,
23797518000,0.999756,-0.014587,0.017395,-0.001282,-0.015625,-0.015625,0.027344,21.224029,,,
23826110000,0.999756,-0.014526,0.017395,-0.001221,-0.015625,-0.015625,-0.011719,21.252621,,,
23836223000,0.999756,-0.014526,0.017395,-0.001221,-0.015625,0.019531,-0.011719,21.262734,,,
23865913000,0.999756,-0.014526,0.017456,-0.001282,-0.015625,0.019531,-0.011719,21.292424,,,
23875849000,0.999756,-0.014526,0.017456,-0.001282,0.023438,-0.015625,-0.011719,21.30236,,,
23901955000,0.999756,-0.014526,0.017456,-0.001221,0.023438,-0.015625,-0.011719,21.328466,3.84,1.58,2.87
23916647000,0.999756,-0.014465,0.017456,-0.001221,-0.015625,-0.015625,0.027344,21.343158,,,
23936715000,0.999756,-0.014465,0.017456,-0.001282,-0.015625,0.019531,0.027344,21.363226,,,
23956290000,0.999756,-0.014465,0.017456,-0.001221,-0.015625,0.019531,0.027344,21.382801,,,
23976676000,0.999756,-0.014465,0.017456,-0.001221,-0.015625,-0.015625,-0.011719,21.403187,,,
24005307000,0.999756,-0.014465,0.017517,-0.001221,-0.007812,-0.015625,0.027344,21.431818,,,
24015349000,0.999756,-0.014465,0.017456,-0.001282,0.03125,-0.015625,-0.011719,21.44186,,,
24037121000,0.999756,-0.014465,0.017456,-0.001221,0.03125,0.019531,0.027344,21.463632,,,
24056242000,0.999756,-0.014465,0.017456,-0.001282,0.03125,-0.015625,-0.011719,21.482753,,,
24076364000,0.999756,-0.014465,0.017456,-0.001282,-0.007812,-0.015625,-0.011719,21.502875,,,
24104647000,0.999756,-0.014465,0.017456,-0.001282,-0.007812,0.019531,0.027344,21.531158,3.84,1.6,2.86
24124729000,0.999756,-0.014465,0.017456,-0.001282,0.023438,-0.015625,-0.011719,21.55124,,,
24135266000,0.999756,-0.014465,0.017456,-0.001282,0.023438,-0.015625,-0.011719,21.561777,,,
24164822000,0.999756,-0.014465,0.017456,-0.001282,-0.015625,-0.015625,-0.011719,21.591333,,,
24175253000,0.999756,-0.014465,0.017456,-0.001282,-0.015625,-0.015625,0.027344,21.601764,,,
24204879000,0.999756,-0.014465,0.017456,-0.001282,-0.015625,-0.015625,0.027344,21.63139,,,
24224551000,0.999756,-0.014465,0.017456,-0.001282,-0.015625,-0.015625,0.027344,21.651062,,,
24235232000,0.999756,-0.014465,0.017456,-0.001282,0.023438,-0.015625,0.027344,21.661743,,,
24264786000,0.999756,-0.014465,0.017456,-0.001282,0.023438,-0.015625,-0.011719,21.691297,,,
24275192000,0.999756,-0.014465,0.017456,-0.001282,-0.015625,0.019531,-0.011719,21.701703,,,
24303950000,0.999756,-0.014465,0.017456,-0.001282,-0.007812,0.019531,0.027344,21.730461,3.82,1.57,2.86
24315366000,0.999756,-0.014465,0.017456,-0.001282,-0.007812,0.019531,0.027344,21.741877,,,
24344391000,0.999756,-0.014465,0.017456,-0.001282,-0.007812,-0.015625,-0.011719,21.770902,,,
24364712000,0.999756,-0.014465,0.017456,-0.001282,-0.007812,0.019531,-0.011719,21.791223,,,
24383865000,0.999756,-0.014465,0.017456,-0.001282,-0.007812,0.019531,0.027344,21.810376,,,
24403712000,0.999756,-0.014465,0.017456,-0.001282,0.03125,0.019531,0.027344,21.830223,,,
24427543000,0.999756,-0.014465,0.017456,-0.001282,-0.007812,0.019531,0.027344,21.854054,,,
24435309000,0.999756,-0.014465,0.017456,-0.001282,0.03125,0.019531,0.027344,21.86182,,,
24464477000,0.999756,-0.014465,0.017456,-0.001282,-0.007812,-0.015625,0.027344,21.890988,,,
24475197000,0.999756,-0.014465,0.017456,-0.001282,-0.007812,0.019531,-0.011719,21.901708,,,
24505463000,0.999756,-0.014465,0.017456,-0.001282,-0.007812,-0.015625,-0.011719,21.931974,3.84,1.59,2.87
24526443000,0.999756,-0.014465,0.017456,-0.001282,0.03125,-0.015625,-0.011719,21.952954,,,
24543533000,0.999756,-0.014465,0.017456,-0.001282,0.03125,0.019531,0.027344,21.970044,,,
24563767000,0.999756,-0.014465,0.017456,-0.001282,-0.007812,-0.015625,-0.011719,21.990278,,,
24589012000,0.999756,-0.014465,0.017456,-0.001282,-0.007812,0.019531,0.027344,22.015523,,,
24603283000,0.999756,-0.014465,0.017456,-0.001282,-0.007812,-0.015625,-0.011719,22.029794,,,
24623355000,0.999756,-0.014465,0.017456,-0.001282,0.03125,-0.015625,0.027344,22.049866,,,
24643012000,0.999756,-0.014465,0.017456,-0.001282,-0.007812,-0.015625,-0.011719,22.069523,,,
24665783000,0.999756,-0.014465,0.017456,-0.001282,-0.007812,0.019531,-0.011719,22.092294,,,
24682976000,0.999756,-0.014465,0.017456,-0.001282,-0.007812,0.019531,0.027344,22.109487,,,
24703011000,0.999756,-0.014465,0.017456,-0.001282,0.03125,-0.015625,-0.011719,22.129522,3.83,1.55,2.85
24728162000,0.999756,-0.014465,0.017456,-0.001282,-0.007812,-0.015625,-0.011719,22.154673,,,
24742729000,0.999756,-0.014465,0.017456,-0.001282,-0.007812,0.019531,-0.011719,22.16924,,,
24769552000,0.999756,-0.014465,0.017456,-0.001282,-0.007812,0.019531,-0.011719,22.196063,,,
24783466000,0.999756,-0.014465,0.017456,-0.001282,-0.007812,0.011719,-0.011719,22.209977,,,
24803404000,0.999756,-0.014465,0.017456,-0.001282,-0.007812,0.011719,0.027344,22.229915,,,
24822978000,0.999756,-0.014465,0.017456,-0.001282,-0.007812,-0.023438,-0.011719,22.249489,,,
24843256000,0.999756,-0.014465,0.017456,-0.001282,0.03125,-0.023438,-0.011719,22.269767,,,
24865778000,0.999756,-0.014465,0.017456,-0.001282,0.03125,0.011719,0.027344,22.292289,,,
24883103000,0.999756,-0.014465,0.017456,-0.001282,-0.007812,-0.015625,-0.011719,22.309614,,,
24902747000,0.999756,-0.014465,0.017456,-0.001282,-0.007812,-0.015625,-0.011719,22.329258,3.81,1.58,2.88
24928880000,0.999756,-0.014465,0.017456,-0.001282,-0.007812,-0.015625,0.027344,22.355391,,,
24943338000,0.999756,-0.014465,0.017456,-0.001282,-0.007812,-0.015625,-0.042969,22.369849,,,
24962556000,0.999756,-0.014465,0.017456,-0.001221,0.03125,-0.054688,-0.003906,22.389067,,,
24982834000,0.999756,-0.014465,0.017456,-0.001221,0.445312,-0.015625,0.035156,22.409345,,,
25002520000,0.999756,-0.014404,0.017456,-0.00116,0.464844,0.019531,-0.003906,22.429031,,,
25022101000,0.999756,-0.014648,0.017456,-0.001221,0.824219,0.019531,0.035156,22.448612,,,
25042012000,0.999756,-0.014526,0.017517,-0.001221,0.351562,-0.09375,0.035156,22.468523,,,
25062458000,0.999756,-0.014587,0.017456,-0.001221,0.273438,-0.09375,-0.234375,22.488969,,,
25081818000,0.999756,-0.014648,0.017456,-0.001282,0.34375,-0.054688,0.109375,22.508329,,,
25102653000,0.999756,-0.014771,0.017456,-0.001282,0.191406,-0.007812,0.035156,22.529164,3.8,1.58,2.89
25123954000,0.999756,-0.014709,0.017456,-0.001282,0.105469,-0.046875,0.035156,22.550465,,,
25141668000,0.999756,-0.014832,0.017578,-0.001343,0.566406,0.066406,-0.003906,22.568179,,,
25161683000,0.999756,-0.014954,0.017639,-0.001343,-0.015625,-0.085938,-0.195312,22.588194,,,
25182057000,0.999756,-0.014954,0.0177,-0.001343,0.136719,0.027344,0.226562,22.608568,,,
25202674000,0.999756,-0.015015,0.017639,-0.001343,0.011719,0.066406,0.148438,22.629185,,,
25221459000,0.999756,-0.015198,0.017639,-0.001404,0.433594,0.027344,-0.082031,22.64797,,,
25241790000,0.999695,-0.01532,0.017761,-0.001404,0.511719,-0.078125,0.070312,22.668301,,,
25261475000,0.999756,-0.015198,0.0177,-0.001404,0.003906,0.035156,0.035156,22.687986,,,
25281342000,0.999756,-0.01532,0.0177,-0.001404,-0.148438,0.027344,0.253906,22.707853,,,
25301432000,0.999756,-0.015137,0.0177,-0.001465,-0.347656,-0.117188,0.332031,22.727943,3.81,1.6,2.91
25324048000,0.999756,-0.015137,0.017517,-0.001526,-0.308594,0.183594,0.140625,22.750559,,,
25348509000,0.999756,-0.015198,0.017639,-0.001526,-1.035156,-0.046875,-0.050781,22.77502,,,
25361305000,0.999756,-0.015137,0.017517,-0.001526,-0.84375,0.066406,-0.167969,22.787816,,,
25383113000,0.999756,-0.014954,0.017517,-0.001587,-1.007812,-0.085938,-0.203125,22.809624,,,
25400993000,0.999756,-0.014954,0.017517,-0.001587,-0.890625,-0.046875,-0.242188,22.827504,,,
25420953000,0.999756,-0.014893,0.017517,-0.001587,-0.277344,0.027344,-0.089844,22.847464,,,
25441322000,0.999756,-0.015015,0.017517,-0.001587,0.066406,0.027344,-0.089844,22.867833,,,
25464439000,0.999756,-0.014893,0.017456,-0.001526,0.371094,0.066406,-0.011719,22.89095,,,
25481032000,0.999756,-0.014709,0.017395,-0.001587,0.335938,-0.046875,0.140625,22.907543,,,
25501237000,0.999756,-0.014648,0.017395,-0.001587,0.105469,0.058594,0.101562,22.927748,3.82,1.61,2.9
25530796000,0.999756,-0.014832,0.017334,-0.001587,0.296875,0.191406,0.027344,22.957307,,,
25539168000,0.999756,-0.014648,0.017334,-0.001587,0.328125,-0.039062,0.0625,22.965679,,,
25557251000,0.999756,-0.014587,0.017395,-0.001648,0.058594,0.066406,-0.203125,22.983762,,,
25584207000,0.999756,-0.014587,0.017273,-0.001709,-0.515625,0.265625,0.140625,23.010718,,,
25596252000,0.999756,-0.014587,0.017212,-0.001709,-0.675781,-0.085938,-0.050781,23.022763,,,
25618382000,0.999756,-0.014648,0.017273,-0.001709,-0.90625,0.027344,-0.050781,23.044893,,,
25638479000,0.999756,-0.014771,0.017212,-0.001709,-0.601562,0.035156,-0.089844,23.06499,,,
25658652000,0.999756,-0.014709,0.017212,-0.001709,-0.484375,-0.007812,0.027344,23.085163,,,
25677182000,0.999756,-0.014587,0.017212,-0.00177,-0.515625,0.066406,0.027344,23.103693,,,
25698409000,0.999756,-0.014709,0.017212,-0.00177,0.289062,-0.117188,-0.050781,23.12492,3.81,1.62,2.91
25726833000,0.999756,-0.014771,0.017212,-0.00177,0.25,0.0,-0.011719,23.153344,,,
25737321000,0.999756,-0.014771,0.017273,-0.00177,0.136719,0.0,0.027344,23.163832,,,
25764143000,0.999756,-0.014954,0.017334,-0.00177,-0.054688,0.074219,0.027344,23.190654,,,
25776318000,0.999756,-0.014832,0.017273,-0.001831,-0.132812,-0.039062,-0.128906,23.202829,,,
25798323000,0.999756,-0.014893,0.017334,-0.001831,-0.707031,0.0,-0.089844,23.224834,,,
25818544000,0.999756,-0.014832,0.017334,-0.001831,-0.59375,0.0,0.027344,23.245055,,,
25839378000,0.999756,-0.014954,0.017395,-0.001831,-0.515625,0.0,-0.011719,23.265889,,,
25858022000,0.999756,-0.014954,0.017334,-0.001831,-0.277344,0.0,-0.011719,23.284533,,,
25877683000,0.999756,-0.014954,0.017334,-0.001831,-0.125,0.0,0.027344,23.304194,,,
25898131000,0.999756,-0.015015,0.017334,-0.001831,-0.085938,0.0,0.027344,23.324642,3.85,1.64,2.88
25917616000,0.999756,-0.015015,0.017334,-0.001831,-0.011719,0.0,-0.011719,23.344127,,,
25943191000,0.999756,-0.015015,0.017334,-0.00177,0.179688,0.0,0.027344,23.369702,,,
25959950000,0.999756,-0.015076,0.017273,-0.001831,0.21875,0.0,-0.050781,23.386461,,,
25979604000,0.999756,-0.015198,0.017273,-0.001831,0.066406,0.0,-0.011719,23.406115,,,
25999544000,0.999756,-0.015198,0.017273,-0.001831,-0.238281,0.035156,0.027344,23.426055,,,
26022031000,0.999756,-0.015198,0.017273,-0.001831,-0.433594,-0.03125,-0.050781,23.448542,,,
26039510000,0.999756,-0.015137,0.017212,-0.001831,-0.230469,0.0,0.027344,23.466021,,,
26059781000,0.999756,-0.015137,0.017212,-0.001831,-0.269531,0.035156,-0.011719,23.486292,,,
26082498000,0.999756,-0.015076,0.017212,-0.001831,-0.117188,0.035156,-0.011719,23.509009,,,
26100109000,0.999756,-0.015137,0.017212,-0.001831,-0.117188,0.035156,-0.011719,23.52662,3.82,1.64,2.89
26119878000,0.999756,-0.015137,0.017212,-0.001831,-0.117188,0.0,-0.011719,23.546389,,,
26141714000,0.999756,-0.015137,0.017212,-0.001831,-0.078125,0.0,0.027344,23.568225,,,
26159567000,0.999756,-0.015137,0.017273,-0.001892,-0.078125,-0.007812,0.027344,23.586078,,,
26178833000,0.999756,-0.015076,0.017273,-0.001892,-0.117188,-0.007812,-0.011719,23.605344,,,
26199119000,0.999756,-0.015076,0.017273,-0.001892,-0.109375,-0.007812,-0.011719,23.62563,,,
26230024000,0.999756,-0.015076,0.017273,-0.001892,-0.109375,0.027344,-0.011719,23.656535,,,
26239436000,0.999756,-0.015076,0.017273,-0.001892,-0.070312,-0.007812,0.027344,23.665947,,,
26259038000,0.999756,-0.015076,0.017273,-0.001892,-0.109375,-0.007812,-0.011719,23.685549,,,
26280279000,0.999756,-0.015076,0.017273,-0.001892,-0.109375,-0.007812,0.027344,23.70679,,,
26298719000,0.999756,-0.015076,0.017273,-0.001892,-0.109375,-0.007812,0.027344,23.72523,3.81,1.59,2.95
26319267000,0.999756,-0.015076,0.017273,-0.001892,-0.109375,0.027344,-0.011719,23.745778,,,
26347792000,0.999756,-0.015076,0.017273,-0.001953,-0.101562,-0.007812,-0.011719,23.774303,,,
26358749000,0.999756,-0.015076,0.017212,-0.001953,0.023438,0.0,0.027344,23.78526,,,
26379576000,0.999756,-0.015076,0.017273,-0.001953,0.023438,0.0,-0.011719,23.806087,,,
26404077000,0.999756,-0.015015,0.017273,-0.001953,0.023438,0.0,-0.011719,23.830588,,,
26419207000,0.999756,-0.015076,0.017273,-0.001953,0.023438,0.035156,0.027344,23.845718,,,
26438445000,0.999756,-0.015076,0.017334,-0.001953,0.054688,0.0,0.027344,23.864956,,,
26464077000,0.999756,-0.015076,0.017334,-0.001953,0.015625,0.0,-0.011719,23.890588,,,
26478911000,0.999756,-0.015137,0.017334,-0.001953,0.015625,0.0,0.027344,23.905422,,,
26498732000,0.999756,-0.015137,0.017334,-0.001953,0.015625,0.0,0.027344,23.925243,3.82,1.66,2.9
26518087000,0.999756,-0.015137,0.017334,-0.001953,0.015625,0.0,0.027344,23.944598,,,
26538475000,0.999756,-0.015137,0.017334,-0.001953,0.007812,0.035156,-0.011719,23.964986,,,
26565008000,0.999756,-0.015137,0.017334,-0.001953,0.007812,0.0,0.027344,23.991519,,,
26578174000,0.999756,-0.015137,0.017334,-0.001953,0.007812,0.0,0.027344,24.004685,,,
26598367000,0.999756,-0.015137,0.017334,-0.001892,0.007812,0.0,0.027344,24.024878,,,
26618226000,0.999756,-0.015198,0.017334,-0.001892,0.046875,-0.007812,0.027344,24.044737,,,
26638346000,0.999756,-0.015137,0.017334,-0.001953,0.007812,-0.007812,0.027344,24.064857,,,
26668293000,0.999756,-0.015137,0.017334,-0.001953,0.0,-0.007812,-0.019531,24.094804,,,
26678157000,0.999756,-0.015137,0.017334,-0.001953,0.0,-0.007812,0.019531,24.104668,,,
26698103000,0.999756,-0.015137,0.017334,-0.001953,0.0,-0.007812,-0.019531,24.124614,3.78,1.62,2.89
26728429000,0.999756,-0.015137,0.017334,-0.001953,0.039062,-0.007812,0.019531,24.15494,,,
26737987000,0.999756,-0.015137,0.017334,-0.001953,0.0,-0.007812,-0.019531,24.164498,,,
26759006000,0.999756,-0.015137,0.017334,-0.001953,0.0,-0.007812,0.019531,24.185517,,,
26777913000,0.999756,-0.015137,0.017334,-0.002014,0.0,-0.007812,-0.019531,24.204424,,,
26798065000,0.999756,-0.015076,0.017334,-0.002014,0.0,-0.007812,0.027344,24.224576,,,
26823554000,0.999756,-0.015076,0.017334,-0.002014,-0.007812,-0.007812,0.027344,24.250065,,,
26837905000,0.999756,-0.015076,0.017334,-0.002014,-0.007812,-0.007812,0.027344,24.264416,,,
26860007000,0.999756,-0.015076,0.017395,-0.002014,-0.007812,-0.007812,0.027344,24.286518,,,
26887831000,0.999756,-0.015076,0.017395,-0.002014,-0.007812,-0.007812,0.019531,24.314342,,,
26897472000,0.999756,-0.015076,0.017395,-0.002014,-0.007812,-0.007812,0.019531,24.323983,3.83,1.64,2.86
26917642000,0.999756,-0.015076,0.017395,-0.002014,0.03125,-0.007812,-0.019531,24.344153,,,
26948056000,0.999756,-0.015137,0.017395,-0.002014,-0.007812,-0.007812,-0.019531,24.374567,,,
26956988000,0.999756,-0.015137,0.017395,-0.002014,0.03125,-0.007812,0.019531,24.383499,,,
26977759000,0.999756,-0.015076,0.017395,-0.002014,-0.007812,-0.007812,0.019531,24.40427,,,
27003804000,0.999756,-0.015076,0.017395,-0.002014,-0.007812,-0.007812,-0.019531,24.430315,,,
27017537000,0.999756,-0.015076,0.017395,-0.002014,-0.007812,0.027344,0.019531,24.444048,,,
27037648000,0.999756,-0.015076,0.017456,-0.002014,-0.007812,-0.007812,-0.019531,24.464159,,,
27057487000,0.999756,-0.015015,0.017456,-0.002014,-0.007812,-0.007812,-0.019531,24.483998,,,
27079338000,0.999756,-0.015076,0.017456,-0.002014,0.03125,-0.007812,0.027344,24.505849,,,
27097183000,0.999756,-0.015076,0.017456,-0.002014,-0.007812,-0.007812,0.027344,24.523694,3.77,1.64,2.85
27117413000,0.999756,-0.015015,0.017456,-0.002014,-0.007812,-0.007812,0.027344,24.543924,,,
27146679000,0.999756,-0.015076,0.017456,-0.002014,-0.007812,-0.007812,-0.011719,24.57319,,,
27156757000,0.999756,-0.015076,0.017456,-0.002014,-0.007812,-0.007812,-0.011719,24.583268,,,
27177307000,0.999756,-0.015076,0.017456,-0.002014,-0.007812,-0.007812,-0.011719,24.603818,,,
27207826000,0.999756,-0.015076,0.017456,-0.002014,-0.007812,-0.007812,-0.011719,24.634337,,,
27216794000,0.999756,-0.015076,0.017395,-0.002014,0.03125,-0.007812,0.027344,24.643305,,,
27237292000,0.999756,-0.015076,0.017395,-0.002014,-0.007812,-0.007812,-0.011719,24.663803,,,
27256779000,0.999756,-0.015076,0.017395,-0.002014,0.03125,-0.007812,0.027344,24.68329,,,
27276931000,0.999756,-0.015076,0.017456,-0.002014,0.03125,-0.007812,-0.050781,24.703442,,,
27297031000,0.999756,-0.015076,0.017456,-0.002014,-0.007812,-0.007812,-0.011719,24.723542,3.76,1.63,2.92
27317310000,0.999756,-0.015137,0.017456,-0.002014,0.03125,-0.007812,0.027344,24.743821,,,
27346544000,0.999756,-0.015076,0.017456,-0.002014,-0.015625,0.027344,0.027344,24.773055,,,
27356401000,0.999756,-0.015137,0.017456,-0.002014,0.023438,-0.007812,0.027344,24.782912,,,
27377226000,0.999756,-0.015137,0.017456,-0.002014,-0.015625,-0.007812,0.027344,24.803737,,,
27406033000,0.999756,-0.015076,0.017456,-0.002014,0.023438,-0.007812,0.027344,24.832544,,,
27415944000,0.999756,-0.015076,0.017456,-0.002014,0.023438,-0.007812,-0.011719,24.842455,,,
27436650000,0.999756,-0.015076,0.017456,-0.002014,-0.015625,-0.007812,-0.011719,24.863161,,,
27456605000,0.999756,-0.015076,0.017456,-0.002014,0.023438,-0.007812,0.027344,24.883116,,,
27476904000,0.999756,-0.015076,0.017456,-0.002014,0.023438,-0.007812,0.027344,24.903415,,,
27502625000,0.999756,-0.015076,0.017456,-0.001953,-0.015625,-0.007812,-0.011719,24.929136,3.75,1.64,2.87
27516623000,0.999756,-0.015076,0.017456,-0.001953,-0.015625,-0.007812,-0.011719,24.943134,,,
27536644000,0.999756,-0.015076,0.017456,-0.001953,-0.015625,-0.007812,0.027344,24.963155,,,
27566168000,0.999756,-0.015076,0.017456,-0.001953,-0.015625,0.027344,-0.011719,24.992679,,,
27585915000,0.999756,-0.015076,0.017456,-0.001953,-0.015625,-0.007812,-0.011719,25.012426,,,
27595355000,0.999756,-0.015076,0.017456,-0.001953,0.023438,-0.007812,-0.011719,25.021866,,,
27616238000,0.999756,-0.015137,0.017456,-0.001953,-0.015625,-0.007812,-0.011719,25.042749,,,
27636681000,0.999756,-0.015137,0.017456,-0.001953,-0.015625,-0.007812,-0.011719,25.063192,,,
27656691000,0.999756,-0.015137,0.017456,-0.001953,-0.015625,-0.007812,-0.011719,25.083202,,,
27678293000,0.999756,-0.015137,0.017517,-0.001953,-0.015625,-0.007812,-0.011719,25.104804,,,
27697185000,0.999756,-0.015076,0.017456,-0.001953,-0.015625,0.027344,-0.011719,25.123696,3.8,1.64,2.87
27722086000,0.999756,-0.015076,0.017517,-0.002014,-0.015625,-0.007812,-0.011719,25.148597,,,
27737001000,0.999756,-0.015137,0.017456,-0.001953,0.023438,-0.007812,-0.011719,25.163512,,,
27756218000,0.999756,-0.015076,0.017456,-0.002014,-0.015625,-0.007812,-0.011719,25.182729,,,
27776645000,0.999756,-0.015076,0.017456,-0.002014,-0.015625,-0.007812,-0.011719,25.203156,,,
27796503000,0.999756,-0.015076,0.017456,-0.002014,-0.007812,0.027344,-0.011719,25.223014,,,
27816365000,0.999756,-0.015076,0.017456,-0.002014,-0.007812,-0.007812,-0.011719,25.242876,,,
27844995000,0.999756,-0.015137,0.017456,-0.002014,0.03125,-0.007812,-0.011719,25.271506,,,
27865274000,0.999756,-0.015076,0.017456,-0.002014,-0.007812,-0.007812,-0.011719,25.291785,,,
27875183000,0.999756,-0.015076,0.017517,-0.002014,0.03125,-0.007812,0.027344,25.301694,,,
27905170000,0.999756,-0.015137,0.017456,-0.002014,0.03125,-0.007812,-0.011719,25.331681,3.82,1.65,2.91
27925232000,0.999756,-0.015137,0.017456,-0.002075,-0.015625,0.027344,-0.011719,25.351743,,,
27944528000,0.999756,-0.015137,0.017456,-0.002075,-0.007812,-0.007812,-0.011719,25.371039,,,
27955311000,0.999756,-0.015137,0.017456,-0.002075,0.03125,-0.007812,-0.011719,25.381822,,,
27986121000,0.999756,-0.015137,0.017456,-0.002075,-0.015625,0.027344,0.027344,25.412632,,,
28004462000,0.999756,-0.015137,0.017517,-0.002075,-0.015625,-0.007812,-0.011719,25.430973,,,
28026734000,0.999756,-0.015137,0.017517,-0.002075,-0.015625,-0.007812,-0.011719,25.453245,,,
28044341000,0.999756,-0.015137,0.017517,-0.002075,-0.015625,-0.015625,-0.011719,25.470852,,,
28064035000,0.999756,-0.015198,0.017517,-0.002075,0.023438,-0.015625,-0.011719,25.490546,,,
28084392000,0.999756,-0.015137,0.017517,-0.002075,0.023438,0.019531,-0.011719,25.510903,,,
28104508000,0.999756,-0.015137,0.017517,-0.002075,0.023438,-0.015625,0.027344,25.531019,3.81,1.64,2.88
28123912000,0.999756,-0.015137,0.017517,-0.002075,0.023438,-0.007812,-0.011719,25.550423,,,
28144186000,0.999756,-0.015137,0.017517,-0.002075,0.023438,-0.007812,-0.011719,25.570697,,,
28163941000,0.999756,-0.015137,0.017517,-0.002075,-0.015625,-0.007812,-0.011719,25.590452,,,
28184480000,0.999756,-0.015137,0.017517,-0.002075,-0.015625,-0.007812,0.027344,25.610991,,,
28203883000,0.999756,-0.015137,0.017517,-0.002075,-0.015625,-0.007812,-0.011719,25.630394,,,
28224294000,0.999756,-0.015137,0.017456,-0.002075,-0.015625,-0.007812,-0.011719,25.650805,,,
28244369000,0.999756,-0.015137,0.017456,-0.002075,-0.015625,-0.007812,0.027344,25.67088,,,
28264787000,0.999756,-0.015137,0.017517,-0.002014,0.023438,0.027344,-0.011719,25.691298,,,
28284179000,0.999756,-0.015137,0.017456,-0.002014,-0.015625,-0.007812,-0.011719,25.71069,,,
28304484000,0.999756,-0.015198,0.017456,-0.002014,-0.015625,-0.007812,-0.011719,25.730995,3.82,1.61,2.9
28323304000,0.999756,-0.015137,0.017456,-0.002014,-0.015625,-0.007812,-0.011719,25.749815,,,
28343990000,0.999756,-0.015137,0.017456,-0.002075,-0.015625,-0.007812,0.027344,25.770501,,,
28363641000,0.999756,-0.015137,0.017517,-0.002075,0.023438,-0.007812,-0.011719,25.790152,,,
28390370000,0.999756,-0.015137,0.017456,-0.002075,-0.015625,-0.007812,0.027344,25.816881,,,
28403300000,0.999756,-0.015137,0.017517,-0.002075,-0.015625,-0.007812,-0.011719,25.829811,,,
28428458000,0.999756,-0.015076,0.017517,-0.002075,-0.015625,-0.007812,-0.011719,25.854969,,,
28444120000,0.999756,-0.015076,0.017517,-0.002075,0.023438,-0.007812,-0.011719,25.870631,,,
28462852000,0.999756,-0.015076,0.017517,-0.002075,-0.015625,-0.007812,-0.011719,25.889363,,,
28483584000,0.999756,-0.015076,0.017517,-0.002075,-0.015625,-0.007812,0.027344,25.910095,,,
28508177000,0.999756,-0.015076,0.017517,-0.002075,0.023438,-0.007812,-0.011719,25.934688,3.8,1.62,2.91
28523060000,0.999756,-0.015076,0.017517,-0.002075,0.023438,-0.007812,-0.011719,25.949571,,,
28546670000,0.999756,-0.015076,0.017517,-0.002075,0.023438,-0.007812,-0.011719,25.973181,,,
28563005000,0.999756,-0.015076,0.017517,-0.002075,-0.015625,-0.007812,-0.011719,25.989516,,,
28582618000,0.999756,-0.015076,0.017517,-0.002075,0.023438,-0.007812,-0.011719,26.009129,,,
28608506000,0.999756,-0.015076,0.017517,-0.002075,-0.015625,0.0,-0.003906,26.035017,,,
28622693000,0.999756,-0.015076,0.017456,-0.002136,-0.015625,0.0,-0.003906,26.049204,,,
28642943000,0.999756,-0.015076,0.017517,-0.002136,-0.015625,0.0,-0.003906,26.069454,,,
28662733000,0.999756,-0.015076,0.017456,-0.002136,0.023438,0.0,-0.003906,26.089244,,,
28682606000,0.999756,-0.015076,0.017456,-0.002136,0.023438,0.0,-0.003906,26.109117,,,
28703233000,0.999756,-0.015076,0.017517,-0.002136,-0.015625,0.0,0.035156,26.129744,3.81,1.65,2.89
28722205000,0.999756,-0.015076,0.017517,-0.002136,-0.015625,-0.046875,-0.003906,26.148716,,,
28742852000,0.999756,-0.015015,0.017456,-0.002136,0.023438,-0.007812,-0.003906,26.169363,,,
28762937000,0.999756,-0.015015,0.017456,-0.002136,-0.015625,-0.007812,-0.003906,26.189448,,,
28782248000,0.999756,-0.015015,0.017456,-0.002136,0.023438,-0.007812,0.035156,26.208759,,,
28804726000,0.999756,-0.015015,0.017456,-0.002136,-0.015625,0.027344,0.035156,26.231237,,,
28831909000,0.999756,-0.015015,0.017456,-0.002075,-0.015625,0.027344,-0.003906,26.25842,,,
28841866000,0.999756,-0.015015,0.017456,-0.002075,-0.015625,-0.007812,0.035156,26.268377,,,
28862394000,0.999756,-0.015076,0.017456,-0.002075,-0.015625,-0.007812,-0.011719,26.288905,,,
