timestamp_ns,qw,qx,qy,qz,ax,ay,az
2517695000,0.999390,-0.013550,0.033081,-0.000427,0.035156,-0.003906,0.011719
2530688000,0.999390,-0.013550,0.033081,-0.000427,-0.003906,-0.003906,-0.027344
2557979000,0.999390,-0.013489,0.033081,-0.000366,-0.003906,-0.003906,-0.027344
2567605000,0.999390,-0.013489,0.033081,-0.000427,-0.003906,0.035156,-0.027344
2580117000,0.999390,-0.013489,0.033081,-0.000366,-0.003906,-0.003906,-0.027344
2587988000,0.999390,-0.013489,0.033081,-0.000427,-0.003906,-0.003906,-0.027344
2598507000,0.999390,-0.013489,0.033081,-0.000427,-0.003906,-0.003906,-0.019531
2608250000,0.999390,-0.013489,0.033081,-0.000427,-0.003906,-0.003906,-0.019531
2623156000,0.999390,-0.013489,0.033142,-0.000427,-0.003906,-0.003906,-0.019531
2628242000,0.999390,-0.013489,0.033081,-0.000427,-0.003906,-0.003906,-0.019531
2638447000,0.999390,-0.013489,0.033081,-0.000427,0.035156,-0.003906,-0.019531
2654210000,0.999390,-0.013489,0.033081,-0.000427,0.035156,-0.003906,0.019531
2667125000,0.999390,-0.013489,0.033081,-0.000427,-0.003906,-0.003906,0.019531
2682383000,0.999390,-0.013489,0.033081,-0.000427,-0.003906,-0.003906,-0.019531
2688367000,0.999390,-0.013489,0.033081,-0.000366,-0.003906,-0.003906,0.019531
2711543000,0.999390,-0.013489,0.033081,-0.000366,-0.003906,-0.003906,0.027344
2727889000,0.999390,-0.013489,0.033081,-0.000366,-0.003906,-0.003906,-0.011719
2747189000,0.999390,-0.013489,0.033142,-0.000366,-0.003906,-0.003906,0.027344
2777307000,0.999390,-0.013489,0.033142,-0.000366,-0.003906,-0.003906,-0.011719
2793280000,0.999390,-0.013489,0.033142,-0.000366,-0.003906,-0.003906,0.027344
2807218000,0.999390,-0.013489,0.033081,-0.000366,-0.003906,-0.003906,-0.011719
2827164000,0.999390,-0.013489,0.033081,-0.000366,-0.003906,-0.003906,0.027344
2851357000,0.999390,-0.013489,0.033081,-0.000366,-0.003906,-0.003906,0.027344
2867089000,0.999390,-0.013489,0.033081,-0.000366,-0.042969,-0.003906,-0.011719
2886796000,0.999390,-0.013489,0.033081,-0.000366,-0.003906,-0.003906,-0.011719
2907860000,0.999390,-0.013550,0.033081,-0.000366,-0.003906,-0.003906,-0.011719
2931620000,0.999390,-0.013489,0.033081,-0.000366,-0.003906,-0.003906,0.027344
2946607000,0.999390,-0.013489,0.033081,-0.000366,-0.003906,-0.003906,-0.011719
2966445000,0.999390,-0.013489,0.033081,-0.000366,-0.003906,-0.003906,0.027344
2996599000,0.999390,-0.013550,0.033081,-0.000366,-0.003906,-0.003906,0.027344
3012861000,0.999390,-0.013489,0.033142,-0.000366,-0.003906,-0.003906,-0.011719
3026725000,0.999390,-0.013489,0.033142,-0.000427,0.035156,-0.003906,0.027344
3048359000,0.999390,-0.013550,0.033081,-0.000366,-0.003906,-0.003906,-0.011719
3067892000,0.999390,-0.013550,0.033081,-0.000427,-0.003906,-0.003906,-0.011719
3093624000,0.999390,-0.013550,0.033081,-0.000427,-0.003906,-0.003906,0.027344
3106268000,0.999390,-0.013550,0.033081,-0.000427,-0.003906,-0.003906,-0.011719
3126404000,0.999390,-0.013550,0.033081,-0.000427,-0.003906,-0.003906,0.027344
3153174000,0.999390,-0.013550,0.033081,-0.000427,-0.003906,-0.003906,-0.011719
3166304000,0.999390,-0.013550,0.033081,-0.000427,-0.003906,-0.003906,0.027344
3186661000,0.999390,-0.013611,0.033081,-0.000427,-0.003906,-0.003906,0.027344
3209132000,0.999390,-0.013550,0.033081,-0.000427,-0.003906,-0.003906,0.027344
3225902000,0.999390,-0.013611,0.033081,-0.000427,-0.003906,0.035156,0.027344
3245927000,0.999390,-0.013611,0.033081,-0.000427,-0.003906,-0.003906,0.027344
3265756000,0.999390,-0.013611,0.033081,-0.000427,-0.003906,-0.003906,-0.011719
3295968000,0.999390,-0.013611,0.033081,-0.000427,-0.003906,-0.003906,-0.011719
3305633000,0.999390,-0.013611,0.033081,-0.000427,0.035156,-0.003906,-0.011719
3325985000,0.999390,-0.013550,0.033081,-0.000427,-0.003906,-0.003906,0.027344
3355541000,0.999390,-0.013611,0.033020,-0.000427,-0.003906,-0.003906,-0.050781
3365917000,0.999390,-0.013611,0.033020,-0.000427,-0.003906,-0.003906,0.027344
3385304000,0.999390,-0.013611,0.033020,-0.000427,-0.003906,-0.003906,0.027344
3415979000,0.999390,-0.013611,0.033081,-0.000427,-0.003906,-0.003906,-0.011719
3426610000,0.999390,-0.013611,0.033081,-0.000427,-0.003906,-0.003906,-0.011719
3445505000,0.999390,-0.013611,0.033081,-0.000427,-0.003906,-0.003906,-0.011719
3466375000,0.999390,-0.013611,0.033081,-0.000427,-0.003906,-0.003906,0.027344
3489384000,0.999390,-0.013611,0.033081,-0.000427,-0.003906,-0.003906,0.027344
3504925000,0.999390,-0.013611,0.033081,-0.000427,-0.003906,-0.003906,0.027344
3524752000,0.999390,-0.013611,0.033081,-0.000427,-0.003906,-0.003906,-0.011719
3545708000,0.999390,-0.013611,0.033081,-0.000427,-0.003906,-0.003906,0.027344
3565050000,0.999390,-0.013611,0.033081,-0.000427,-0.003906,-0.039062,0.027344
3585947000,0.999390,-0.013611,0.033081,-0.000427,-0.003906,-0.003906,0.027344
3608971000,0.999390,-0.013611,0.033081,-0.000427,-0.003906,-0.003906,-0.011719
3624578000,0.999390,-0.013611,0.033081,-0.000427,-0.003906,-0.003906,0.019531
3645047000,0.999390,-0.013611,0.033081,-0.000427,-0.003906,-0.003906,-0.019531
3674596000,0.999390,-0.013611,0.033081,-0.000427,-0.003906,-0.003906,-0.019531
3687227000,0.999390,-0.013611,0.033081,-0.000427,-0.003906,-0.003906,0.019531
3704550000,0.999390,-0.013611,0.033081,-0.000427,-0.003906,-0.003906,0.019531
3730720000,0.999390,-0.013611,0.033081,-0.000427,-0.003906,0.035156,0.019531
3744320000,0.999390,-0.013611,0.033081,-0.000427,-0.003906,-0.003906,0.019531
3765189000,0.999390,-0.013611,0.033081,-0.000427,-0.042969,-0.003906,-0.019531
3794173000,0.999390,-0.013611,0.033081,-0.000427,0.035156,-0.003906,0.019531
3804320000,0.999390,-0.013611,0.033081,-0.000427,-0.003906,-0.003906,0.019531
3823913000,0.999390,-0.013611,0.033081,-0.000427,-0.042969,-0.003906,-0.019531
3844220000,0.999390,-0.013611,0.033081,-0.000427,-0.003906,-0.003906,-0.019531
3874086000,0.999390,-0.013611,0.033081,-0.000427,-0.003906,-0.003906,0.019531
3884498000,0.999390,-0.013611,0.033081,-0.000427,-0.003906,-0.003906,-0.019531
3904303000,0.999390,-0.013611,0.033081,-0.000427,-0.003906,-0.003906,0.019531
3924954000,0.999390,-0.013611,0.033081,-0.000427,-0.003906,-0.003906,0.019531
3945629000,0.999390,-0.013611,0.033081,-0.000427,-0.003906,-0.003906,0.019531
3973725000,0.999390,-0.013611,0.033081,-0.000427,-0.003906,-0.003906,-0.019531
3983508000,0.999390,-0.013611,0.033081,-0.000427,-0.003906,-0.003906,-0.019531
4004143000,0.999390,-0.013611,0.033081,-0.000427,-0.003906,-0.003906,-0.019531
4024878000,0.999390,-0.013611,0.033081,-0.000427,-0.003906,-0.003906,0.019531
4043602000,0.999390,-0.013611,0.033081,-0.000427,-0.003906,-0.003906,0.019531
4063225000,0.999390,-0.013611,0.033081,-0.000427,-0.003906,-0.003906,-0.011719
4083265000,0.999390,-0.013611,0.033081,-0.000427,-0.003906,-0.003906,-0.011719
4110159000,0.999390,-0.013611,0.033081,-0.000427,-0.042969,-0.003906,0.027344
4123168000,0.999390,-0.013611,0.033081,-0.000427,-0.003906,-0.003906,0.027344
4143464000,0.999390,-0.013611,0.033081,-0.000427,-0.003906,-0.003906,0.027344
4164167000,0.999390,-0.013611,0.033081,-0.000427,-0.003906,-0.003906,0.027344
4193965000,0.999390,-0.013611,0.033081,-0.000427,-0.003906,-0.003906,-0.011719
4204091000,0.999390,-0.013611,0.033081,-0.000427,-0.003906,-0.003906,0.027344
4223045000,0.999390,-0.013611,0.033081,-0.000427,-0.003906,-0.003906,-0.011719
4243260000,0.999390,-0.013611,0.033081,-0.000427,-0.003906,-0.003906,0.019531
4268592000,0.999390,-0.013611,0.033081,-0.000427,-0.003906,-0.003906,0.019531
4282878000,0.999390,-0.013611,0.033081,-0.000427,-0.003906,-0.003906,0.019531
4302681000,0.999390,-0.013611,0.033081,-0.000427,-0.003906,-0.003906,0.019531
4333307000,0.999390,-0.013611,0.033081,-0.000427,0.035156,-0.003906,0.019531
4342889000,0.999390,-0.013611,0.033081,-0.000427,-0.003906,-0.003906,0.019531
4362881000,0.999390,-0.013611,0.033081,-0.000427,-0.003906,-0.003906,0.019531
4392778000,0.999390,-0.013611,0.033081,-0.000427,-0.003906,-0.003906,-0.019531
4409144000,0.999390,-0.013611,0.033081,-0.000427,-0.003906,-0.003906,-0.019531
4422853000,0.999390,-0.013611,0.033081,-0.000427,-0.003906,-0.003906,0.019531
4443046000,0.999390,-0.013611,0.033081,-0.000427,-0.003906,-0.003906,-0.019531
4472289000,0.999390,-0.013611,0.033081,-0.000427,-0.003906,-0.003906,0.019531
4482868000,0.999390,-0.013611,0.033081,-0.000427,-0.003906,-0.003906,0.019531
4502462000,0.999390,-0.013611,0.033081,-0.000427,-0.003906,-0.003906,-0.019531
4523596000,0.999390,-0.013611,0.033081,-0.000427,-0.042969,-0.003906,0.019531
4549146000,0.999390,-0.013611,0.033081,-0.000427,0.035156,-0.003906,0.019531
4562359000,0.999390,-0.013611,0.033081,-0.000427,-0.003906,-0.003906,0.019531
4591073000,0.999390,-0.013611,0.033081,-0.000427,-0.003906,-0.003906,0.019531
4600825000,0.999390,-0.013611,0.033081,-0.000427,-0.003906,-0.003906,0.019531
4626400000,0.999390,-0.013611,0.033081,-0.000427,-0.003906,-0.003906,-0.019531
4640614000,0.999390,-0.013611,0.033081,-0.000427,-0.003906,-0.003906,-0.019531
4661621000,0.999390,-0.013611,0.033081,-0.000427,-0.003906,-0.003906,0.019531
4682159000,0.999390,-0.013611,0.033081,-0.000427,-0.003906,-0.003906,0.019531
4708723000,0.999390,-0.013611,0.033081,-0.000427,-0.003906,-0.003906,0.019531
4722700000,0.999390,-0.013611,0.033081,-0.000427,-0.003906,-0.003906,0.019531
4742557000,0.999390,-0.013611,0.033081,-0.000427,-0.003906,-0.003906,-0.019531
4771271000,0.999390,-0.013611,0.033081,-0.000427,-0.003906,-0.039062,-0.019531
4781819000,0.999390,-0.013611,0.033081,-0.000427,-0.003906,-0.003906,-0.019531
4802515000,0.999390,-0.013611,0.033081,-0.000427,-0.003906,-0.003906,-0.019531
4831150000,0.999390,-0.013611,0.033081,-0.000427,-0.003906,-0.003906,0.019531
4841506000,0.999390,-0.013611,0.033081,-0.000427,0.035156,-0.003906,0.019531
4862313000,0.999390,-0.013611,0.033081,-0.000427,-0.003906,-0.003906,0.019531
4882172000,0.999390,-0.013611,0.033081,-0.000427,-0.003906,-0.003906,-0.019531
4910950000,0.999390,-0.013611,0.033081,-0.000427,-0.003906,0.035156,0.132812
4921312000,0.999390,-0.013611,0.033081,-0.000427,-0.003906,-0.003906,-0.058594
4942035000,0.999390,-0.013611,0.033081,-0.000427,-0.042969,-0.003906,-0.019531
4962102000,0.999390,-0.013611,0.033081,-0.000427,-0.003906,-0.003906,0.019531
4982382000,0.999390,-0.013611,0.033081,-0.000427,0.035156,-0.003906,0.058594
5002713000,0.999390,-0.013611,0.033081,-0.000427,-0.003906,-0.003906,-0.019531
5027685000,0.999390,-0.013611,0.033081,-0.000427,-0.003906,-0.003906,0.019531
5041513000,0.999390,-0.013611,0.033081,-0.000427,0.035156,-0.003906,-0.019531
5061693000,0.999390,-0.013611,0.033081,-0.000427,-0.003906,-0.003906,-0.019531
5091078000,0.999390,-0.013611,0.033081,-0.000427,-0.003906,-0.003906,-0.058594
5100572000,0.999390,-0.013611,0.033081,-0.000427,-0.003906,-0.003906,0.058594
5133135000,0.999390,-0.013611,0.033081,-0.000427,-0.003906,-0.003906,0.019531
5150816000,0.999390,-0.013611,0.033081,-0.000427,-0.003906,-0.039062,-0.019531
5167036000,0.999390,-0.013611,0.033081,-0.000427,-0.003906,-0.003906,0.019531
5181188000,0.999390,-0.013611,0.033081,-0.000427,-0.003906,-0.003906,0.019531
5201682000,0.999390,-0.013611,0.033081,-0.000427,-0.003906,-0.003906,0.019531
5231346000,0.999390,-0.013611,0.033081,-0.000427,-0.003906,-0.003906,0.019531
5250159000,0.999390,-0.013611,0.033081,-0.000427,-0.003906,-0.003906,0.019531
5260320000,0.999390,-0.013611,0.033081,-0.000427,-0.003906,-0.003906,0.019531
5289952000,0.999390,-0.013611,0.033081,-0.000427,-0.003906,-0.003906,0.019531
5312369000,0.999390,-0.013611,0.033081,-0.000427,-0.003906,-0.003906,-0.019531
5320298000,0.999390,-0.013611,0.033081,-0.000427,-0.003906,-0.003906,0.019531
5341660000,0.999390,-0.013611,0.033081,-0.000427,-0.003906,-0.003906,-0.019531
5370387000,0.999390,-0.013611,0.033081,-0.000427,-0.003906,-0.003906,-0.019531
5380332000,0.999390,-0.013611,0.033081,-0.000427,-0.003906,-0.003906,0.019531
5404938000,0.999390,-0.013611,0.033081,-0.000427,-0.003906,-0.003906,0.019531
5421670000,0.999390,-0.013611,0.033081,-0.000427,0.035156,0.035156,-0.019531
5449583000,0.999390,-0.013611,0.033081,-0.000427,-0.003906,-0.003906,-0.019531
5466548000,0.999390,-0.013611,0.033081,-0.000427,-0.003906,0.035156,-0.019531
5496458000,0.999390,-0.013611,0.033081,-0.000427,-0.003906,-0.003906,0.019531
5509886000,0.999390,-0.013611,0.033081,-0.000427,-0.003906,-0.003906,-0.019531
5529559000,0.999390,-0.013611,0.033081,-0.000427,-0.003906,-0.003906,0.019531
5545894000,0.999390,-0.013611,0.033081,-0.000427,-0.042969,0.027344,0.019531
5575294000,0.999390,-0.013611,0.033081,-0.000427,-0.003906,0.027344,0.019531
5589400000,0.999390,-0.013611,0.033081,-0.000427,-0.003906,0.027344,0.019531
5609830000,0.999390,-0.013611,0.033081,-0.000427,-0.003906,-0.011719,0.019531
5629636000,0.999390,-0.013611,0.033081,-0.000427,-0.003906,-0.011719,0.019531
5649567000,0.999390,-0.013611,0.033081,-0.000427,-0.003906,-0.011719,-0.027344
5669483000,0.999390,-0.013611,0.033081,-0.000427,-0.003906,-0.011719,0.011719
5692665000,0.999390,-0.013611,0.033081,-0.000427,0.035156,-0.011719,-0.027344
5717985000,0.999390,-0.013611,0.033081,-0.000427,-0.003906,-0.011719,-0.027344
5729151000,0.999390,-0.013611,0.033081,-0.000427,-0.003906,-0.011719,0.019531
5748912000,0.999390,-0.013611,0.033081,-0.000427,-0.003906,-0.011719,-0.019531
5760394000,0.999390,-0.013611,0.033081,-0.000427,-0.003906,-0.011719,0.019531
5788798000,0.999390,-0.013611,0.033081,-0.000427,-0.003906,-0.011719,-0.019531
5808925000,0.999390,-0.013611,0.033081,-0.000427,-0.003906,-0.011719,0.019531
5829542000,0.999390,-0.013611,0.033081,-0.000427,-0.003906,0.027344,0.019531
5848548000,0.999390,-0.013611,0.033081,-0.000427,-0.003906,-0.011719,0.019531
5869235000,0.999390,-0.013611,0.033081,-0.000427,0.035156,-0.011719,0.019531
5888259000,0.999390,-0.013611,0.033081,-0.000427,-0.003906,-0.011719,-0.019531
5909733000,0.999390,-0.013611,0.033081,-0.000427,-0.003906,-0.011719,-0.019531
5934378000,0.999390,-0.013611,0.033081,-0.000427,-0.003906,-0.011719,-0.019531
5949170000,0.999390,-0.013611,0.033081,-0.000427,-0.003906,-0.003906,0.019531
5968176000,0.999390,-0.013611,0.033081,-0.000427,-0.003906,-0.003906,-0.019531
5988600000,0.999390,-0.013611,0.033081,-0.000427,-0.003906,-0.003906,-0.019531
6016550000,0.999390,-0.013611,0.033081,-0.000427,-0.003906,-0.003906,-0.019531
6028074000,0.999390,-0.013611,0.033081,-0.000427,-0.003906,-0.003906,0.019531
6048667000,0.999390,-0.013611,0.033081,-0.000427,-0.003906,-0.003906,0.019531
6074095000,0.999390,-0.013611,0.033081,-0.000427,-0.003906,-0.003906,0.019531
6088255000,0.999390,-0.013611,0.033081,-0.000427,-0.042969,0.035156,0.019531
6107562000,0.999390,-0.013611,0.033081,-0.000427,-0.003906,-0.003906,0.019531
6133296000,0.999390,-0.013611,0.033081,-0.000427,-0.003906,-0.003906,0.019531
6147926000,0.999390,-0.013611,0.033081,-0.000427,-0.003906,-0.003906,0.019531
6168706000,0.999390,-0.013611,0.033081,-0.000427,-0.003906,0.027344,0.019531
6189170000,0.999390,-0.013611,0.033081,-0.000427,-0.003906,-0.011719,-0.019531
6208191000,0.999390,-0.013611,0.033081,-0.000427,-0.003906,0.027344,0.019531
6237311000,0.999390,-0.013611,0.033081,-0.000427,-0.003906,-0.011719,-0.019531
6247820000,0.999390,-0.013611,0.033081,-0.000427,-0.003906,-0.011719,-0.019531
6267649000,0.999390,-0.013611,0.033081,-0.000427,-0.003906,-0.011719,-0.019531
6294073000,0.999390,-0.013611,0.033081,-0.000427,-0.003906,-0.011719,-0.019531
6307227000,0.999390,-0.013611,0.033081,-0.000427,-0.003906,0.027344,0.019531
6337413000,0.999390,-0.013611,0.033081,-0.000427,-0.003906,-0.011719,-0.019531
6353407000,0.999390,-0.013611,0.033081,-0.000427,-0.003906,-0.011719,0.019531
6366957000,0.999390,-0.013611,0.033081,-0.000427,-0.003906,-0.011719,-0.019531
6387719000,0.999390,-0.013611,0.033081,-0.000427,-0.003906,-0.011719,-0.019531
6412627000,0.999390,-0.013611,0.033081,-0.000427,-0.003906,-0.011719,0.019531
6427735000,0.999390,-0.013611,0.033081,-0.000427,0.035156,-0.011719,0.019531
6446776000,0.999390,-0.013611,0.033081,-0.000427,-0.003906,-0.046875,-0.019531
6467684000,0.999390,-0.013611,0.033081,-0.000427,-0.003906,-0.011719,0.019531
6491609000,0.999390,-0.013611,0.033081,-0.000427,-0.003906,-0.011719,-0.019531
6507227000,0.999390,-0.013611,0.033081,-0.000427,0.035156,-0.011719,0.019531
6528778000,0.999390,-0.013611,0.033081,-0.000427,-0.003906,0.027344,-0.019531
6553220000,0.999390,-0.013611,0.033081,-0.000427,-0.003906,0.027344,0.019531
6566925000,0.999390,-0.013611,0.033081,-0.000427,-0.003906,-0.011719,0.019531
6587250000,0.999390,-0.013611,0.033081,-0.000427,-0.003906,-0.011719,0.019531
6610254000,0.999390,-0.013611,0.033081,-0.000427,-0.003906,-0.046875,-0.019531
6626694000,0.999390,-0.013611,0.033081,-0.000427,-0.003906,-0.011719,0.019531
6646692000,0.999390,-0.013611,0.033081,-0.000427,-0.003906,-0.003906,0.019531
6667306000,0.999390,-0.013611,0.033081,-0.000427,-0.003906,-0.003906,0.019531
6691722000,0.999390,-0.013611,0.033081,-0.000427,-0.003906,0.035156,0.011719
6705958000,0.999390,-0.013611,0.033081,-0.000427,-0.003906,0.035156,-0.066406
6726050000,0.999390,-0.013611,0.033081,-0.000427,-0.042969,-0.003906,0.019531
6745935000,0.999390,-0.013611,0.033081,-0.000427,-0.003906,-0.039062,0.019531
6766250000,0.999390,-0.013611,0.033081,-0.000427,-0.003906,-0.003906,0.019531
6786224000,0.999390,-0.013611,0.033081,-0.000427,-0.003906,-0.003906,-0.019531
6809576000,0.999390,-0.013611,0.033081,-0.000427,-0.003906,-0.003906,0.019531
6825888000,0.999390,-0.013611,0.033081,-0.000427,-0.003906,0.035156,-0.019531
6845893000,0.999390,-0.013611,0.033081,-0.000427,-0.003906,-0.003906,-0.019531
6876261000,0.999390,-0.013611,0.033081,-0.000427,-0.003906,0.027344,0.019531
6885847000,0.999390,-0.013611,0.033081,-0.000427,0.035156,-0.011719,0.019531
6905637000,0.999390,-0.013611,0.033081,-0.000427,-0.003906,0.027344,-0.019531
6925962000,0.999390,-0.013611,0.033081,-0.000427,-0.003906,-0.011719,0.019531
6950229000,0.999390,-0.013611,0.033081,-0.000427,-0.003906,0.027344,-0.058594
6965499000,0.999390,-0.013611,0.033081,-0.000427,-0.003906,0.027344,-0.019531
6985340000,0.999390,-0.013611,0.033081,-0.000427,-0.003906,-0.011719,-0.019531
7015386000,0.999390,-0.013611,0.033081,-0.000427,-0.003906,-0.011719,0.019531
7025191000,0.999390,-0.013611,0.033081,-0.000427,-0.003906,-0.011719,-0.019531
7045129000,0.999390,-0.013611,0.033081,-0.000427,-0.003906,-0.011719,0.019531
7067580000,0.999390,-0.013611,0.033081,-0.000427,0.035156,0.027344,0.019531
7085063000,0.999390,-0.013611,0.033081,-0.000427,-0.003906,-0.011719,-0.058594
7105941000,0.999390,-0.013611,0.033081,-0.000427,-0.003906,-0.011719,0.019531
7126181000,0.999390,-0.013611,0.033081,-0.000427,-0.003906,0.027344,0.019531
7151639000,0.999390,-0.013611,0.033081,-0.000427,-0.003906,-0.011719,0.019531
7165137000,0.999390,-0.013611,0.033081,-0.000427,-0.003906,0.027344,0.019531
7185386000,0.999390,-0.013611,0.033081,-0.000427,-0.003906,-0.011719,-0.019531
7204606000,0.999390,-0.013611,0.033081,-0.000427,0.035156,-0.011719,0.019531
7225001000,0.999390,-0.013611,0.033081,-0.000427,0.035156,-0.011719,0.058594
7246224000,0.999390,-0.013611,0.033081,-0.000427,-0.003906,-0.011719,0.019531
7264737000,0.999390,-0.013611,0.033081,-0.000427,-0.003906,-0.011719,0.019531
7284714000,0.999390,-0.013611,0.033081,-0.000427,-0.003906,-0.011719,-0.019531
7315974000,0.999390,-0.013611,0.033081,-0.000427,-0.003906,-0.011719,0.011719
7330356000,0.999390,-0.013611,0.033081,-0.000427,-0.003906,-0.011719,-0.027344
7344597000,0.999390,-0.013611,0.033081,-0.000427,-0.003906,-0.011719,0.011719
7364374000,0.999329,-0.013733,0.033081,0.000977,0.832031,-0.691406,-0.105469
7385657000,0.999329,-0.014709,0.033386,0.003479,0.546875,0.183594,0.277344
7405121000,0.999268,-0.015564,0.033691,0.005920,-0.019531,0.433594,0.242188
7424411000,0.999268,-0.015991,0.033997,0.007690,0.441406,0.144531,-0.257812
7444599000,0.999268,-0.016541,0.033691,0.007874,0.210938,1.417969,-0.144531
7464761000,0.999268,-0.016357,0.033447,0.007996,1.007812,-0.183594,0.125000
7484418000,0.999329,-0.015503,0.032410,0.008057,0.878906,0.199219,0.050781
7504977000,0.999390,-0.015564,0.030518,0.007935,-0.304688,1.867188,1.812500
7533918000,0.999390,-0.015747,0.030701,0.008118,0.648438,-0.285156,-1.183594
7543975000,0.999390,-0.015686,0.030518,0.007935,0.058594,0.949219,0.843750
7563992000,0.999390,-0.015808,0.030518,0.008057,-0.027344,-0.238281,0.539062
7584618000,0.999390,-0.015930,0.030273,0.007935,-0.105469,0.066406,-0.417969
7610197000,0.999390,-0.015747,0.030090,0.007568,-0.378906,0.066406,0.386719
7624278000,0.999390,-0.015381,0.029907,0.007263,-0.273438,0.066406,0.042969
7643867000,0.999451,-0.015259,0.029541,0.006714,-0.656250,0.031250,0.156250
7673661000,0.999451,-0.015320,0.028931,0.005737,-0.058594,-0.199219,-0.003906
7683617000,0.999451,-0.015381,0.028687,0.005432,0.046875,-0.125000,0.070312
7703848000,0.999451,-0.015381,0.028442,0.005066,-0.449219,0.031250,0.070312
7723428000,0.999451,-0.015625,0.028137,0.004822,-0.191406,-0.046875,-0.089844
7743898000,0.999451,-0.015503,0.028076,0.004883,0.039062,-0.160156,0.179688
7773125000,0.999451,-0.015747,0.027710,0.004639,-0.042969,0.066406,0.140625
7783602000,0.999512,-0.015808,0.027588,0.004395,-0.011719,0.144531,-0.167969
7802969000,0.999512,-0.015747,0.027405,0.004089,-0.625000,-0.152344,-0.050781
7823548000,0.999512,-0.015686,0.027344,0.003845,-0.703125,0.222656,-0.128906
7853767000,0.999512,-0.015564,0.027283,0.003784,-0.175781,0.066406,0.179688
7863460000,0.999512,-0.015564,0.027222,0.003845,-0.175781,-0.039062,-0.175781
7883994000,0.999512,-0.015625,0.027222,0.003845,-0.480469,0.039062,-0.097656
7910137000,0.999512,-0.015686,0.027161,0.003906,-0.519531,0.000000,-0.058594
7922801000,0.999512,-0.015747,0.027161,0.003967,-0.289062,0.000000,-0.175781
7942626000,0.999512,-0.015686,0.027100,0.003906,-0.175781,0.113281,0.054688
7972927000,0.999512,-0.015747,0.026978,0.003906,-0.097656,0.000000,0.054688
7992504000,0.999512,-0.015808,0.026917,0.003845,-0.144531,0.074219,0.019531
8002987000,0.999512,-0.015808,0.026917,0.003845,0.085938,0.082031,0.054688
8022704000,0.999512,-0.015808,0.026855,0.003906,0.125000,0.121094,0.093750
8043337000,0.999512,-0.015869,0.026733,0.003906,0.621094,0.160156,0.054688
8064935000,0.999512,-0.016052,0.026611,0.003845,0.277344,0.007812,-0.058594
8083121000,0.999512,-0.015991,0.026306,0.003601,-0.343750,0.046875,-0.058594
8112401000,0.999512,-0.016052,0.025818,0.002747,-0.312500,0.046875,-0.097656
8123198000,0.999573,-0.015930,0.025574,0.002502,-0.199219,0.273438,-0.058594
8142543000,0.999573,-0.015930,0.025146,0.001831,-0.589844,-0.039062,-0.210938
8163177000,0.999573,-0.015930,0.025024,0.001587,-0.781250,0.074219,0.093750
8192012000,0.999573,-0.015930,0.025024,0.001526,-0.511719,0.007812,-0.250000
8202317000,0.999573,-0.015930,0.025024,0.001526,-0.015625,0.082031,0.054688
8222287000,0.999573,-0.015930,0.025024,0.001526,0.062500,0.046875,-0.019531
8242375000,0.999573,-0.015930,0.025024,0.001648,0.175781,0.046875,-0.027344
8282453000,0.999573,-0.015930,0.024963,0.001709,-0.398438,0.121094,0.011719
8291615000,0.999573,-0.015930,0.024963,0.001709,-0.050781,0.046875,0.011719
8311864000,0.999573,-0.015930,0.025024,0.001770,-0.050781,0.046875,-0.027344
8326857000,0.999573,-0.015930,0.025024,0.001709,-0.089844,0.082031,-0.027344
8342413000,0.999573,-0.015930,0.025024,0.001709,-0.089844,0.046875,0.011719
8362525000,0.999573,-0.015930,0.025024,0.001770,-0.042969,0.046875,-0.027344
8382597000,0.999573,-0.015991,0.025024,0.001709,-0.042969,0.046875,-0.027344
8402143000,0.999573,-0.015930,0.025024,0.001709,-0.042969,0.046875,-0.027344
8422466000,0.999573,-0.015930,0.025024,0.001709,-0.042969,0.046875,-0.066406
8451939000,0.999573,-0.015930,0.024963,0.001709,-0.042969,0.046875,0.011719
8461802000,0.999573,-0.015991,0.024963,0.001709,-0.042969,0.046875,-0.027344
8482213000,0.999573,-0.015991,0.024963,0.001709,-0.042969,0.046875,-0.027344
8510985000,0.999573,-0.015991,0.024963,0.001709,-0.082031,0.046875,-0.066406
8521436000,0.999573,-0.015991,0.024963,0.001709,-0.042969,0.082031,-0.027344
8542158000,0.999573,-0.015991,0.025024,0.001709,0.011719,-0.007812,0.003906
8562088000,0.999573,-0.016052,0.025024,0.001709,-0.027344,-0.007812,0.003906
8591151000,0.999573,-0.016052,0.025024,0.001709,-0.027344,0.027344,0.003906
8601601000,0.999573,-0.016052,0.025024,0.001709,-0.027344,-0.007812,0.003906
8622194000,0.999573,-0.015991,0.025024,0.001709,0.011719,-0.007812,0.042969
8642569000,0.999573,-0.015991,0.025024,0.001709,-0.027344,0.027344,0.042969
8668075000,0.999573,-0.016052,0.025024,0.001709,0.019531,-0.007812,0.003906
8682718000,0.999573,-0.016052,0.025024,0.001709,0.019531,-0.007812,0.003906
8711303000,0.999573,-0.016052,0.024963,0.001709,0.019531,-0.007812,0.003906
8730345000,0.999573,-0.015991,0.024963,0.001709,0.019531,-0.007812,0.042969
8740745000,0.999573,-0.015991,0.024963,0.001709,0.019531,-0.007812,0.003906
8762065000,0.999573,-0.016052,0.024963,0.001709,-0.019531,-0.007812,-0.003906
8786723000,0.999573,-0.016113,0.024902,0.001648,0.019531,-0.007812,-0.003906
8801707000,0.999573,-0.016052,0.024963,0.001648,0.019531,-0.007812,0.035156
8821700000,0.999573,-0.016052,0.024902,0.001648,-0.019531,-0.007812,-0.003906
8841621000,0.999573,-0.016052,0.024902,0.001648,0.019531,-0.007812,-0.003906
8870758000,0.999573,-0.016052,0.024902,0.001648,-0.019531,-0.007812,-0.003906
8880485000,0.999573,-0.016113,0.024902,0.001648,0.019531,-0.007812,-0.003906
8901666000,0.999573,-0.016113,0.024902,0.001648,0.019531,-0.007812,-0.003906
8921725000,0.999573,-0.016113,0.024902,0.001648,0.019531,-0.007812,0.035156
8950213000,0.999573,-0.016174,0.024902,0.001648,0.019531,-0.007812,-0.003906
8960306000,0.999573,-0.016174,0.024902,0.001648,-0.019531,-0.007812,-0.003906
8981697000,0.999573,-0.016174,0.024902,0.001648,0.019531,-0.007812,-0.003906
9009746000,0.999573,-0.016174,0.024902,0.001648,-0.019531,-0.007812,0.003906
9027142000,0.999573,-0.016174,0.024902,0.001648,0.019531,-0.007812,0.003906
9041244000,0.999573,-0.016174,0.024902,0.001648,0.019531,0.027344,0.003906
9061440000,0.999573,-0.016174,0.024902,0.001648,-0.019531,-0.007812,0.003906
9100259000,0.999573,-0.016174,0.024902,0.001648,0.019531,-0.007812,0.003906
9119728000,0.999573,-0.016174,0.024902,0.001648,0.019531,-0.007812,0.003906
9129756000,0.999573,-0.016174,0.024902,0.001648,-0.019531,-0.007812,0.003906
9140182000,0.999573,-0.016174,0.024902,0.001648,0.019531,-0.007812,0.042969
9162406000,0.999573,-0.016174,0.024902,0.001648,0.019531,-0.007812,0.042969
9192661000,0.999573,-0.016174,0.024841,0.001648,-0.019531,-0.007812,0.042969
9200400000,0.999573,-0.016174,0.024841,0.001648,-0.019531,-0.007812,-0.035156
9229285000,0.999573,-0.016235,0.024841,0.001648,0.019531,0.027344,0.003906
9249476000,0.999573,-0.016235,0.024841,0.001648,0.019531,0.027344,0.003906
9269285000,0.999573,-0.016235,0.024841,0.001648,0.019531,-0.007812,0.042969
9280250000,0.999573,-0.016235,0.024841,0.001648,0.019531,0.027344,-0.003906
9310012000,0.999573,-0.016235,0.024841,0.001648,-0.019531,-0.007812,-0.003906
9328724000,0.999573,-0.016235,0.024841,0.001648,0.019531,-0.007812,-0.003906
9349389000,0.999573,-0.016235,0.024841,0.001648,-0.019531,-0.007812,0.035156
9360351000,0.999573,-0.016235,0.024841,0.001648,-0.019531,-0.007812,-0.003906
9388974000,0.999573,-0.016235,0.024841,0.001648,0.019531,0.027344,-0.003906
9409217000,0.999573,-0.016235,0.024841,0.001648,0.019531,0.027344,-0.003906
9431973000,0.999573,-0.016235,0.024841,0.001648,0.019531,-0.007812,0.035156
9448750000,0.999573,-0.016235,0.024841,0.001648,0.019531,0.027344,-0.003906
9469369000,0.999573,-0.016235,0.024841,0.001648,0.019531,-0.015625,-0.003906
9494556000,0.999573,-0.016235,0.024841,0.001648,0.019531,-0.015625,-0.003906
9509045000,0.999573,-0.016174,0.024841,0.001587,-0.019531,0.019531,-0.003906
9530447000,0.999573,-0.016174,0.024841,0.001587,0.019531,-0.015625,-0.003906
9548541000,0.999573,-0.016113,0.024841,0.001648,-0.019531,-0.015625,0.003906
9570643000,0.999573,-0.016113,0.024841,0.001648,-0.019531,0.019531,0.003906
9588419000,0.999573,-0.016113,0.024841,0.001648,-0.019531,-0.007812,0.003906
9613046000,0.999573,-0.016113,0.024841,0.001648,0.019531,-0.007812,0.003906
9628001000,0.999573,-0.016113,0.024841,0.001648,0.019531,-0.007812,0.042969
9648178000,0.999573,-0.016113,0.024841,0.001648,0.019531,-0.007812,0.042969
9668363000,0.999573,-0.016113,0.024841,0.001648,0.019531,-0.007812,0.003906
9693618000,0.999573,-0.016113,0.024841,0.001648,0.019531,0.027344,-0.003906
9707965000,0.999573,-0.016113,0.024841,0.001648,0.019531,-0.007812,0.035156
9727860000,0.999573,-0.016113,0.024841,0.001648,0.019531,-0.007812,-0.003906
9757728000,0.999573,-0.016113,0.024841,0.001648,-0.019531,-0.007812,-0.003906
9774749000,0.999573,-0.016113,0.024841,0.001648,-0.019531,0.027344,-0.003906
9787634000,0.999573,-0.016113,0.024841,0.001648,0.019531,0.027344,-0.003906
9807088000,0.999573,-0.016113,0.024841,0.001648,0.011719,-0.007812,-0.003906
9828675000,0.999573,-0.016113,0.024841,0.001648,0.011719,-0.007812,-0.003906
9852195000,0.999573,-0.016113,0.024841,0.001648,0.011719,-0.007812,-0.042969
9867506000,0.999573,-0.016113,0.024841,0.001648,0.011719,-0.007812,0.003906
9887402000,0.999573,-0.016113,0.024841,0.001648,0.011719,-0.007812,0.003906
9909534000,0.999573,-0.016113,0.024841,0.001648,-0.027344,0.027344,0.003906
9937220000,0.999573,-0.016113,0.024841,0.001648,-0.027344,0.027344,0.003906
9947212000,0.999573,-0.016113,0.024841,0.001648,0.011719,-0.007812,0.042969
9966906000,0.999573,-0.016113,0.024841,0.001648,0.011719,0.027344,0.003906
9997528000,0.999573,-0.016113,0.024841,0.001648,0.019531,-0.015625,0.003906
10007438000,0.999573,-0.016113,0.024841,0.001648,0.019531,-0.015625,0.003906
10031827000,0.999573,-0.016113,0.024841,0.001648,0.019531,-0.015625,0.042969
10047245000,0.999573,-0.016113,0.024841,0.001648,0.019531,-0.015625,0.003906
10066994000,0.999573,-0.016113,0.024841,0.001648,0.019531,-0.007812,0.042969
10087692000,0.999573,-0.016113,0.024841,0.001648,-0.019531,0.027344,0.003906
10107063000,0.999573,-0.016113,0.024841,0.001648,0.019531,-0.007812,0.003906
10126901000,0.999573,-0.016113,0.024841,0.001648,0.019531,-0.007812,0.003906
10146950000,0.999573,-0.016113,0.024841,0.001648,-0.019531,-0.007812,0.003906
10171568000,0.999573,-0.016113,0.024841,0.001648,0.019531,0.019531,0.003906
10186429000,0.999573,-0.016113,0.024841,0.001648,-0.019531,-0.015625,0.003906
10206779000,0.999573,-0.016113,0.024841,0.001648,0.019531,0.019531,0.003906
10227553000,0.999573,-0.016113,0.024841,0.001648,0.019531,-0.015625,0.003906
10246054000,0.999573,-0.016113,0.024841,0.001648,-0.019531,-0.015625,0.003906
10266115000,0.999573,-0.016113,0.024841,0.001648,0.019531,-0.015625,0.003906
10286187000,0.999573,-0.016113,0.024841,0.001648,0.019531,0.019531,0.003906
10310658000,0.999573,-0.016113,0.024841,0.001648,0.019531,-0.015625,0.003906
10326148000,0.999573,-0.016113,0.024841,0.001648,-0.019531,0.019531,0.003906
10346937000,0.999573,-0.016113,0.024841,0.001648,0.019531,-0.054688,0.003906
10370547000,0.999573,-0.016113,0.024841,0.001648,-0.019531,0.019531,0.042969
10385774000,0.999573,-0.016113,0.024841,0.001648,0.019531,-0.015625,-0.003906
10405778000,0.999573,-0.016113,0.024841,0.001648,-0.019531,0.019531,0.035156
10435798000,0.999573,-0.016113,0.024841,0.001648,-0.019531,-0.015625,-0.003906
10446344000,0.999573,-0.016113,0.024841,0.001648,0.019531,-0.015625,-0.003906
10465589000,0.999573,-0.016113,0.024841,0.001648,0.019531,-0.015625,0.035156
10485929000,0.999573,-0.016113,0.024841,0.001648,0.019531,-0.015625,-0.003906
10506126000,0.999573,-0.016113,0.024841,0.001648,-0.019531,0.019531,-0.003906
10529004000,0.999573,-0.016113,0.024841,0.001648,0.019531,-0.015625,0.035156
10545308000,0.999573,-0.016113,0.024841,0.001648,-0.019531,-0.015625,0.035156
10567020000,0.999573,-0.016113,0.024841,0.001648,-0.019531,-0.015625,-0.003906
10585230000,0.999573,-0.016113,0.024841,0.001648,0.019531,-0.015625,-0.003906
10607135000,0.999573,-0.016113,0.024841,0.001648,0.019531,-0.015625,0.035156
10626937000,0.999573,-0.016113,0.024841,0.001648,0.019531,-0.015625,0.035156
10646634000,0.999573,-0.016113,0.024841,0.001648,0.019531,0.019531,-0.042969
10665283000,0.999573,-0.016113,0.024841,0.001648,0.019531,0.019531,-0.003906
10684914000,0.999573,-0.016113,0.024841,0.001648,-0.019531,-0.015625,-0.003906
10705110000,0.999573,-0.016113,0.024841,0.001648,0.019531,-0.015625,-0.003906
10735213000,0.999573,-0.016113,0.024841,0.001648,-0.019531,-0.015625,-0.003906
10744910000,0.999573,-0.016113,0.024841,0.001648,0.019531,-0.015625,-0.003906
10765029000,0.999573,-0.016113,0.024841,0.001648,0.019531,0.019531,0.035156
10784902000,0.999573,-0.016113,0.024841,0.001648,-0.019531,0.019531,0.035156
10815176000,0.999573,-0.016113,0.024841,0.001648,0.019531,-0.015625,-0.003906
10824784000,0.999573,-0.016113,0.024841,0.001648,0.019531,-0.015625,-0.003906
10844671000,0.999573,-0.016113,0.024841,0.001648,0.011719,-0.015625,-0.003906
10866659000,0.999573,-0.016113,0.024841,0.001648,0.011719,-0.015625,-0.003906
10884421000,0.999573,-0.016113,0.024841,0.001648,0.011719,-0.015625,-0.003906
10904854000,0.999573,-0.016113,0.024841,0.001648,-0.027344,-0.007812,-0.003906
10924846000,0.999573,-0.016113,0.024841,0.001648,0.011719,-0.007812,-0.003906
10945603000,0.999573,-0.016113,0.024841,0.001648,0.011719,-0.007812,-0.003906
10970848000,0.999573,-0.016113,0.024841,0.001648,0.011719,0.027344,0.003906
10984382000,0.999573,-0.016113,0.024841,0.001648,0.011719,-0.007812,0.003906
11004266000,0.999573,-0.016113,0.024841,0.001648,0.011719,-0.007812,0.003906
11023975000,0.999573,-0.016113,0.024841,0.001648,0.011719,-0.007812,0.003906
11044152000,0.999573,-0.016113,0.024841,0.001648,0.011719,-0.007812,0.003906
11074514000,0.999573,-0.016113,0.024841,0.001648,0.011719,-0.007812,0.003906
11089537000,0.999573,-0.016113,0.024841,0.001648,0.011719,0.027344,0.003906
11104364000,0.999573,-0.016113,0.024841,0.001648,0.011719,-0.007812,0.003906
11125267000,0.999573,-0.016113,0.024841,0.001648,0.011719,-0.007812,0.003906
11143950000,0.999573,-0.016113,0.024841,0.001648,0.011719,0.027344,0.003906
11170075000,0.999573,-0.016113,0.024841,0.001648,-0.027344,-0.007812,0.003906
11183503000,0.999573,-0.016113,0.024841,0.001648,0.011719,0.027344,0.003906
11203258000,0.999573,-0.016113,0.024841,0.001648,0.011719,-0.007812,0.003906
11224072000,0.999573,-0.016113,0.024841,0.001648,0.011719,0.027344,0.003906
11253652000,0.999573,-0.016113,0.024841,0.001648,0.011719,-0.015625,0.003906
11263581000,0.999573,-0.016113,0.024841,0.001648,0.011719,-0.015625,0.003906
11283191000,0.999573,-0.016113,0.024841,0.001648,0.011719,-0.015625,0.042969
11303481000,0.999573,-0.016113,0.024841,0.001648,0.011719,-0.015625,0.003906
11333536000,0.999573,-0.016113,0.024841,0.001648,0.011719,-0.007812,0.003906
11343259000,0.999573,-0.016113,0.024841,0.001648,0.011719,0.027344,0.003906
11362963000,0.999573,-0.016113,0.024841,0.001648,0.011719,0.019531,0.042969
11384652000,0.999573,-0.016113,0.024841,0.001648,0.011719,-0.015625,0.003906
11414129000,0.999573,-0.016113,0.024841,0.001648,0.011719,-0.015625,0.003906
11422991000,0.999573,-0.016113,0.024841,0.001648,0.011719,-0.015625,0.003906
11445689000,0.999573,-0.016113,0.024841,0.001648,-0.027344,-0.007812,0.003906
11463089000,0.999573,-0.016113,0.024841,0.001648,0.011719,0.027344,0.003906
11492861000,0.999573,-0.016113,0.024841,0.001648,0.011719,0.027344,-0.035156
11502706000,0.999573,-0.016113,0.024841,0.001648,0.011719,-0.007812,0.003906
11523068000,0.999573,-0.016113,0.024841,0.001648,0.011719,-0.007812,0.003906
11550084000,0.999573,-0.016113,0.024841,0.001648,0.011719,0.027344,-0.035156
11562501000,0.999573,-0.016113,0.024841,0.001648,0.011719,-0.007812,0.003906
11582790000,0.999573,-0.016113,0.024841,0.001648,0.011719,-0.007812,0.003906
11612762000,0.999573,-0.016113,0.024841,0.001648,0.011719,-0.007812,0.003906
11622531000,0.999573,-0.016113,0.024841,0.001648,0.011719,-0.007812,0.003906
11651921000,0.999573,-0.016113,0.024841,0.001648,0.011719,0.027344,0.003906
11662521000,0.999573,-0.016113,0.024841,0.001648,0.011719,-0.007812,0.042969
11682649000,0.999573,-0.016113,0.024841,0.001648,0.011719,0.027344,0.003906
11712308000,0.999573,-0.016113,0.024841,0.001648,0.011719,-0.015625,0.003906
11722447000,0.999573,-0.016113,0.024841,0.001648,0.011719,-0.015625,0.003906
11742399000,0.999573,-0.016113,0.024841,0.001648,0.011719,0.019531,0.003906
11762434000,0.999573,-0.016113,0.024841,0.001648,-0.027344,0.019531,0.042969
11782326000,0.999573,-0.016113,0.024841,0.001648,0.011719,-0.015625,0.003906
11802055000,0.999573,-0.016113,0.024841,0.001648,-0.027344,-0.015625,0.042969
11832397000,0.999573,-0.016113,0.024841,0.001648,0.011719,0.019531,0.003906
11841712000,0.999573,-0.016113,0.024841,0.001648,-0.027344,-0.015625,0.042969
11862461000,0.999573,-0.016113,0.024841,0.001648,0.011719,0.058594,0.042969
11882737000,0.999573,-0.016113,0.024841,0.001648,0.011719,-0.015625,0.003906
11912118000,0.999573,-0.016113,0.024841,0.001648,0.011719,0.019531,0.035156
11921800000,0.999573,-0.016113,0.024841,0.001648,-0.027344,-0.015625,0.035156
11942664000,0.999573,-0.016113,0.024841,0.001648,0.011719,-0.015625,-0.003906
11963123000,0.999573,-0.016113,0.024841,0.001648,0.011719,-0.015625,-0.003906
11988331000,0.999573,-0.016113,0.024841,0.001648,-0.027344,0.019531,-0.003906
12001676000,0.999573,-0.016113,0.024841,0.001648,0.011719,0.019531,0.035156
12022424000,0.999573,-0.016113,0.024841,0.001648,-0.027344,-0.015625,-0.003906
12052439000,0.999573,-0.016113,0.024841,0.001648,0.019531,-0.015625,-0.003906
12061643000,0.999573,-0.016113,0.024841,0.001648,0.019531,-0.015625,0.035156
12082345000,0.999573,-0.016113,0.024841,0.001648,-0.019531,0.019531,-0.003906
12111795000,0.999573,-0.016113,0.024841,0.001648,0.019531,0.019531,-0.003906
12131561000,0.999573,-0.016113,0.024841,0.001648,0.019531,0.019531,-0.003906
12140723000,0.999573,-0.016113,0.024841,0.001648,0.019531,0.019531,-0.003906
12164094000,0.999573,-0.016113,0.024841,0.001648,0.019531,0.019531,-0.003906
12182096000,0.999573,-0.016113,0.024841,0.001648,0.019531,0.019531,-0.003906
12201741000,0.999573,-0.016113,0.024841,0.001648,-0.019531,0.019531,-0.003906
12231456000,0.999573,-0.016113,0.024841,0.001648,0.019531,-0.015625,-0.003906
12250828000,0.999573,-0.016113,0.024841,0.001648,0.019531,0.019531,-0.003906
12262770000,0.999573,-0.016113,0.024841,0.001648,0.019531,0.019531,0.035156
12281873000,0.999573,-0.016113,0.024841,0.001648,0.019531,-0.015625,-0.003906
12310381000,0.999573,-0.016113,0.024841,0.001648,0.011719,-0.015625,-0.003906
12320723000,0.999573,-0.016113,0.024841,0.001648,0.011719,-0.015625,0.035156
12341655000,0.999573,-0.016113,0.024841,0.001648,0.011719,-0.015625,-0.003906
12362246000,0.999573,-0.016113,0.024841,0.001648,0.011719,0.019531,-0.003906
12390775000,0.999573,-0.016113,0.024841,0.001648,0.011719,-0.015625,-0.003906
12400260000,0.999573,-0.016113,0.024841,0.001648,0.011719,-0.015625,-0.003906
12422008000,0.999573,-0.016113,0.024841,0.001648,0.011719,-0.015625,-0.003906
12441653000,0.999573,-0.016113,0.024841,0.001648,0.011719,-0.015625,-0.003906
12470047000,0.999573,-0.016113,0.024841,0.001648,-0.027344,-0.015625,0.035156
12480365000,0.999573,-0.016113,0.024841,0.001648,-0.027344,0.019531,0.035156
12501623000,0.999573,-0.016113,0.024841,0.001648,0.011719,-0.015625,-0.003906
12521680000,0.999573,-0.016113,0.024841,0.001648,0.011719,-0.015625,-0.003906
12550022000,0.999573,-0.016113,0.024841,0.001648,-0.027344,-0.015625,0.035156
12560421000,0.999573,-0.016113,0.024841,0.001648,0.011719,-0.015625,-0.003906
12581718000,0.999573,-0.016113,0.024841,0.001648,0.011719,0.019531,-0.003906
12609567000,0.999573,-0.016113,0.024841,0.001648,0.011719,0.019531,-0.003906
12620367000,0.999573,-0.016113,0.024841,0.001648,0.011719,0.019531,-0.003906
12655736000,0.999573,-0.016113,0.024841,0.001648,0.011719,-0.015625,-0.003906
12670049000,0.999573,-0.016113,0.024841,0.001648,0.011719,-0.015625,-0.003906
12689940000,0.999573,-0.016113,0.024841,0.001648,-0.027344,-0.015625,-0.003906
12700274000,0.999573,-0.016113,0.024841,0.001648,-0.027344,-0.015625,-0.003906
12729815000,0.999573,-0.016113,0.024841,0.001648,0.011719,-0.015625,0.035156
12749701000,0.999573,-0.016113,0.024841,0.001648,0.011719,-0.015625,-0.003906
12769644000,0.999573,-0.016113,0.024841,0.001648,0.011719,-0.015625,-0.003906
12791488000,0.999573,-0.016113,0.024841,0.001648,-0.027344,0.019531,0.035156
12815826000,0.999573,-0.016113,0.024841,0.001648,-0.027344,-0.007812,-0.003906
12829490000,0.999573,-0.016113,0.024841,0.001648,0.011719,-0.007812,-0.042969
12849278000,0.999573,-0.016113,0.024841,0.001648,-0.027344,0.019531,-0.003906
12870638000,0.999573,-0.016174,0.024841,0.001648,0.011719,0.019531,-0.042969
12889065000,0.999573,-0.016113,0.024841,0.001648,-0.027344,-0.015625,-0.082031
12908914000,0.999573,-0.016113,0.024841,0.001648,0.019531,-0.015625,-0.003906
12929264000,0.999573,-0.016113,0.024841,0.001648,0.019531,-0.015625,0.042969
12949363000,0.999573,-0.016113,0.024841,0.001648,0.019531,0.019531,-0.035156
12971857000,0.999573,-0.016113,0.024841,0.001648,-0.019531,0.019531,-0.035156
12989163000,0.999573,-0.016174,0.024841,0.001648,-0.019531,0.019531,0.042969
13008962000,0.999573,-0.016174,0.024841,0.001648,0.019531,-0.015625,0.003906
13029206000,0.999573,-0.016174,0.024841,0.001648,0.019531,-0.015625,0.003906
13051563000,0.999573,-0.016174,0.024841,0.001648,-0.019531,-0.015625,0.003906
13069132000,0.999573,-0.016174,0.024841,0.001648,0.019531,-0.015625,0.003906
13088527000,0.999573,-0.016174,0.024841,0.001648,0.019531,-0.015625,0.003906
13108709000,0.999573,-0.016174,0.024841,0.001831,0.019531,-0.015625,0.042969
13130560000,0.999573,-0.016235,0.025024,0.002380,0.968750,-0.132812,0.109375
13148640000,0.999573,-0.016296,0.025024,0.002747,0.578125,0.175781,-0.082031
13168414000,0.999573,-0.016418,0.024963,0.002930,0.156250,0.105469,-0.042969
13197971000,0.999573,-0.016541,0.024780,0.003052,0.039062,-0.078125,0.109375
13214503000,0.999573,-0.016602,0.024719,0.003052,0.156250,-0.078125,-0.042969
13228024000,0.999573,-0.016602,0.024597,0.002991,0.445312,0.000000,-0.160156
13248849000,0.999573,-0.016663,0.024475,0.002869,0.062500,-0.039062,0.109375
13271370000,0.999573,-0.016602,0.024170,0.002563,0.093750,0.121094,-0.195312
13288378000,0.999573,-0.016479,0.023865,0.002197,0.238281,-0.070312,-0.195312
13308484000,0.999573,-0.016602,0.023560,0.002014,0.230469,-0.070312,-0.273438
13328969000,0.999573,-0.016418,0.023254,0.001648,-0.121094,0.199219,-0.234375
13348102000,0.999573,-0.016724,0.023010,0.001465,0.667969,-0.300781,0.187500
13368065000,0.999573,-0.016846,0.022766,0.001221,1.156250,-0.023438,-0.121094
13391058000,0.999573,-0.017090,0.022644,0.001038,0.507812,-0.062500,-0.121094
13409214000,0.999634,-0.015625,0.021179,-0.000305,0.300781,0.703125,-0.386719
13427547000,0.999756,-0.013489,0.018860,-0.000671,-1.992188,-2.675781,12.359375
13448130000,0.999695,-0.014221,0.018799,-0.000732,-0.660156,-0.417969,4.390625
13467677000,0.999695,-0.014709,0.019104,-0.000793,-0.214844,-0.070312,-0.089844
13487771000,0.999695,-0.014404,0.018799,-0.000793,-0.589844,-0.062500,0.140625
13507972000,0.999695,-0.014526,0.018799,-0.000793,-0.437500,-0.023438,-0.289062
13532454000,0.999695,-0.014343,0.018738,-0.000854,-0.437500,-0.062500,-0.402344
13547808000,0.999695,-0.014404,0.018738,-0.000854,-0.324219,0.128906,0.093750
13576969000,0.999695,-0.014526,0.018738,-0.000854,-0.253906,-0.062500,-0.136719
13599214000,0.999695,-0.014526,0.018799,-0.000854,-0.175781,0.089844,0.054688
13607227000,0.999695,-0.014465,0.018799,-0.000916,-0.214844,0.050781,-0.019531
13628127000,0.999695,-0.014282,0.018738,-0.000916,-0.253906,0.050781,-0.210938
13653388000,0.999695,-0.014404,0.018799,-0.000916,-0.214844,0.011719,-0.136719
13667641000,0.999695,-0.014343,0.018799,-0.000916,-0.101562,0.011719,-0.097656
13686981000,0.999695,-0.014404,0.018799,-0.000977,0.398438,0.011719,0.054688
13717167000,0.999695,-0.014465,0.018738,-0.000977,0.207031,-0.062500,0.093750
13727299000,0.999695,-0.014465,0.018799,-0.000977,-0.253906,-0.101562,0.054688
13746957000,0.999695,-0.014465,0.018738,-0.000977,0.089844,0.050781,-0.175781
13766491000,0.999695,-0.014526,0.018860,-0.001038,-0.523438,0.167969,0.019531
13796347000,0.999695,-0.014465,0.018799,-0.001038,-0.140625,-0.023438,0.054688
13806737000,0.999695,-0.014465,0.018799,-0.001038,0.320312,-0.023438,-0.136719
13826131000,0.999695,-0.014465,0.018799,-0.001038,0.320312,0.011719,-0.136719
13851292000,0.999695,-0.014465,0.018860,-0.001038,-0.445312,-0.023438,0.246094
13866540000,0.999695,-0.014404,0.018799,-0.001099,-0.714844,-0.062500,-0.097656
13888909000,0.999695,-0.014343,0.018799,-0.001099,-0.214844,-0.023438,-0.058594
13906403000,0.999695,-0.014465,0.018860,-0.001099,0.128906,-0.023438,0.019531
13926881000,0.999695,-0.014343,0.018738,-0.001099,0.167969,-0.062500,0.093750
13946325000,0.999695,-0.014343,0.018677,-0.001160,-0.214844,0.050781,0.132812
13970444000,0.999695,-0.014465,0.018799,-0.001160,-0.406250,0.011719,-0.019531
13986116000,0.999695,-0.014404,0.018616,-0.001221,-0.597656,0.058594,-0.250000
14006387000,0.999695,-0.014404,0.018677,-0.001221,-0.714844,0.089844,0.171875
14027382000,0.999695,-0.014404,0.018677,-0.001221,-0.445312,-0.023438,-0.175781
14051350000,0.999695,-0.014465,0.018738,-0.001221,-0.062500,-0.023438,-0.019531
14066374000,0.999695,-0.014465,0.018738,-0.001221,-0.062500,0.011719,-0.019531
14085991000,0.999695,-0.014465,0.018738,-0.001160,0.058594,0.011719,-0.058594
14112377000,0.999695,-0.014465,0.018677,-0.001160,0.023438,0.019531,-0.019531
14125482000,0.999695,-0.014465,0.018677,-0.001160,-0.132812,0.011719,-0.019531
14145755000,0.999695,-0.014465,0.018677,-0.001160,-0.015625,0.011719,-0.058594
14166051000,0.999695,-0.014465,0.018677,-0.001160,-0.015625,0.019531,-0.019531
14185332000,0.999695,-0.014404,0.018677,-0.001221,-0.015625,-0.023438,0.019531
14205553000,0.999695,-0.014404,0.018616,-0.001221,0.023438,-0.023438,0.019531
14235844000,0.999695,-0.014343,0.018555,-0.001160,-0.023438,-0.023438,0.019531
14246038000,0.999695,-0.014343,0.018555,-0.001160,-0.062500,0.011719,0.019531
14265855000,0.999695,-0.014343,0.018555,-0.001221,-0.023438,0.011719,0.019531
14291654000,0.999695,-0.014343,0.018555,-0.001221,-0.054688,0.011719,-0.019531
14304971000,0.999695,-0.014343,0.018555,-0.001221,-0.015625,-0.023438,0.019531
14325366000,0.999695,-0.014343,0.018555,-0.001221,-0.054688,0.011719,-0.019531
14349394000,0.999695,-0.014343,0.018555,-0.001282,-0.054688,0.011719,-0.019531
14365127000,0.999695,-0.014343,0.018555,-0.001282,0.023438,0.011719,-0.011719
14385305000,0.999695,-0.014343,0.018494,-0.001282,0.023438,-0.023438,-0.011719
14405742000,0.999695,-0.014343,0.018555,-0.001282,-0.015625,0.011719,-0.011719
14430187000,0.999695,-0.014404,0.018555,-0.001221,0.023438,0.011719,-0.011719
14444631000,0.999695,-0.014343,0.018555,-0.001282,0.023438,0.011719,-0.011719
14464761000,0.999695,-0.014404,0.018555,-0.001282,-0.015625,-0.023438,-0.011719
14486398000,0.999695,-0.014404,0.018555,-0.001282,0.023438,0.011719,0.027344
14510564000,0.999695,-0.014404,0.018555,-0.001282,0.023438,0.011719,-0.011719
14525338000,0.999695,-0.014404,0.018555,-0.001282,-0.023438,0.011719,-0.050781
14544959000,0.999695,-0.014404,0.018555,-0.001282,-0.023438,-0.023438,-0.011719
14565267000,0.999695,-0.014404,0.018555,-0.001282,-0.023438,0.011719,-0.011719
14588466000,0.999695,-0.014404,0.018494,-0.001221,0.015625,0.011719,-0.003906
14604989000,0.999695,-0.014404,0.018494,-0.001221,-0.023438,0.011719,-0.003906
14624698000,0.999695,-0.014404,0.018494,-0.001221,0.015625,0.011719,-0.003906
14645275000,0.999695,-0.014404,0.018494,-0.001221,0.015625,0.011719,-0.003906
14664936000,0.999695,-0.014404,0.018494,-0.001221,0.015625,0.011719,-0.003906
14694461000,0.999695,-0.014404,0.018494,-0.001282,0.015625,0.003906,-0.003906
14704684000,0.999695,-0.014404,0.018494,-0.001282,-0.023438,0.003906,-0.003906
14724502000,0.999695,-0.014404,0.018433,-0.001221,0.015625,0.003906,-0.003906
14744159000,0.999756,-0.014404,0.018433,-0.001282,-0.023438,0.003906,0.035156
14769849000,0.999756,-0.014343,0.018433,-0.001221,0.015625,0.003906,-0.003906
14784059000,0.999756,-0.014404,0.018433,-0.001282,-0.023438,0.003906,-0.003906
14803993000,0.999756,-0.014404,0.018433,-0.001282,0.015625,0.003906,0.035156
14833773000,0.999756,-0.014343,0.018433,-0.001221,0.015625,0.003906,0.035156
14844456000,0.999756,-0.014343,0.018433,-0.001282,0.015625,0.003906,0.035156
14864638000,0.999756,-0.014343,0.018433,-0.001282,0.015625,-0.031250,-0.003906
14893422000,0.999756,-0.014343,0.018433,-0.001282,0.015625,-0.031250,-0.003906
14903944000,0.999756,-0.014343,0.018433,-0.001282,-0.023438,0.003906,-0.003906
14925648000,0.999756,-0.014343,0.018433,-0.001282,0.015625,-0.031250,-0.003906
14943908000,0.999756,-0.014404,0.018433,-0.001221,-0.023438,0.003906,-0.003906
14973525000,0.999756,-0.014343,0.018433,-0.001221,-0.023438,-0.031250,-0.003906
14983960000,0.999756,-0.014343,0.018433,-0.001221,-0.023438,0.003906,-0.003906
15003395000,0.999756,-0.014343,0.018433,-0.001221,-0.015625,-0.031250,-0.003906
15023568000,0.999756,-0.014343,0.018433,-0.001221,0.023438,0.003906,0.035156
15043457000,0.999756,-0.014343,0.018433,-0.001221,-0.015625,0.003906,-0.003906
15073392000,0.999756,-0.014343,0.018433,-0.001282,0.023438,0.003906,-0.003906
15083097000,0.999756,-0.014343,0.018433,-0.001282,-0.015625,0.003906,-0.003906
15103324000,0.999756,-0.014343,0.018433,-0.001282,-0.015625,0.003906,-0.003906
15132425000,0.999756,-0.014343,0.018433,-0.001282,-0.015625,0.003906,-0.003906
15143011000,0.999756,-0.014343,0.018433,-0.001282,-0.015625,0.003906,-0.003906
15163848000,0.999756,-0.014404,0.018433,-0.001282,0.023438,0.003906,-0.003906
15184640000,0.999695,-0.014404,0.018433,-0.001282,0.023438,0.003906,0.035156
15209329000,0.999756,-0.014404,0.018433,-0.001282,-0.015625,0.003906,0.035156
15223078000,0.999756,-0.014404,0.018433,-0.001282,-0.015625,0.003906,-0.003906
15243379000,0.999756,-0.014404,0.018433,-0.001282,-0.015625,0.003906,-0.003906
15263150000,0.999695,-0.014465,0.018433,-0.001282,0.023438,0.003906,-0.003906
15292217000,0.999695,-0.014465,0.018433,-0.001282,0.023438,0.011719,-0.003906
15302998000,0.999695,-0.014465,0.018433,-0.001282,0.023438,0.011719,-0.003906
15322583000,0.999695,-0.014465,0.018433,-0.001282,-0.015625,0.003906,-0.003906
15353194000,0.999695,-0.014465,0.018494,-0.001282,-0.015625,0.003906,0.035156
15369340000,0.999695,-0.014465,0.018494,-0.001282,-0.015625,-0.039062,-0.003906
15382464000,0.999695,-0.014465,0.018494,-0.001343,0.023438,-0.023438,0.035156
15402645000,0.999695,-0.014465,0.018494,-0.001282,-0.015625,0.011719,-0.003906
15423052000,0.999695,-0.014465,0.018494,-0.001343,-0.015625,0.011719,-0.003906
15451899000,0.999695,-0.014465,0.018494,-0.001343,-0.015625,0.011719,-0.003906
15462657000,0.999695,-0.014465,0.018494,-0.001343,0.023438,0.011719,-0.003906
15491998000,0.999695,-0.014404,0.018494,-0.001343,-0.015625,0.003906,-0.003906
15502473000,0.999695,-0.014404,0.018494,-0.001343,-0.015625,0.003906,0.035156
15522641000,0.999695,-0.014404,0.018555,-0.001343,-0.015625,0.003906,-0.003906
15551543000,0.999695,-0.014404,0.018494,-0.001343,0.023438,0.003906,-0.003906
15561760000,0.999695,-0.014404,0.018494,-0.001343,-0.015625,0.003906,-0.003906
15582645000,0.999695,-0.014404,0.018494,-0.001343,-0.015625,0.003906,-0.003906
15602436000,0.999695,-0.014404,0.018494,-0.001343,0.023438,-0.031250,-0.003906
15631327000,0.999695,-0.014404,0.018494,-0.001343,-0.015625,0.003906,-0.003906
15646660000,0.999695,-0.014404,0.018494,-0.001343,0.023438,0.003906,0.035156
15668472000,0.999695,-0.014404,0.018494,-0.001343,0.023438,-0.031250,-0.003906
15682077000,0.999695,-0.014404,0.018494,-0.001343,-0.015625,-0.031250,-0.042969
15710913000,0.999695,-0.014404,0.018494,-0.001343,0.023438,0.003906,-0.003906
15721373000,0.999695,-0.014404,0.018494,-0.001343,0.023438,0.003906,-0.003906
15742152000,0.999695,-0.014404,0.018494,-0.001343,-0.015625,0.003906,-0.003906
15762071000,0.999695,-0.014404,0.018494,-0.001343,-0.015625,0.003906,-0.003906
15792671000,0.999695,-0.014404,0.018494,-0.001343,0.023438,0.003906,-0.003906
15801854000,0.999695,-0.014404,0.018494,-0.001343,0.023438,0.003906,-0.003906
15830725000,0.999695,-0.014404,0.018494,-0.001343,-0.015625,0.003906,-0.003906
15850404000,0.999695,-0.014404,0.018494,-0.001343,0.023438,0.003906,-0.003906
15866601000,0.999695,-0.014404,0.018494,-0.001343,-0.015625,0.003906,-0.003906
15881700000,0.999695,-0.014404,0.018494,-0.001343,-0.015625,-0.031250,-0.003906
15901601000,0.999695,-0.014404,0.018494,-0.001343,-0.015625,0.003906,0.035156
15930486000,0.999695,-0.014404,0.018494,-0.001343,-0.015625,0.003906,0.035156
15940773000,0.999695,-0.014404,0.018494,-0.001343,-0.015625,0.003906,-0.003906
15961701000,0.999695,-0.014404,0.018494,-0.001343,-0.015625,0.003906,-0.003906
15990401000,0.999695,-0.014404,0.018494,-0.001343,0.023438,0.003906,-0.003906
16006357000,0.999695,-0.014404,0.018494,-0.001343,0.023438,0.003906,-0.003906
16021489000,0.999695,-0.014404,0.018494,-0.001343,-0.015625,0.003906,-0.003906
16041668000,0.999695,-0.014404,0.018494,-0.001343,0.023438,0.003906,0.035156
16062105000,0.999695,-0.014404,0.018494,-0.001343,-0.015625,0.003906,0.035156
16086438000,0.999695,-0.014404,0.018494,-0.001343,0.023438,0.003906,-0.003906
16101193000,0.999695,-0.014404,0.018494,-0.001343,0.023438,0.003906,0.035156
16121600000,0.999695,-0.014404,0.018494,-0.001343,-0.015625,-0.031250,0.035156
16141911000,0.999695,-0.014404,0.018494,-0.001343,0.023438,-0.031250,0.035156
16168223000,0.999695,-0.014404,0.018555,-0.001343,-0.015625,0.003906,-0.003906
16181197000,0.999695,-0.014404,0.018555,-0.001343,-0.015625,0.003906,-0.003906
16201640000,0.999695,-0.014404,0.018494,-0.001343,0.023438,0.003906,-0.003906
16229424000,0.999695,-0.014404,0.018494,-0.001404,0.023438,0.003906,-0.003906
16240263000,0.999695,-0.014404,0.018494,-0.001404,0.023438,0.003906,0.035156
16267510000,0.999695,-0.014404,0.018494,-0.001404,0.023438,0.003906,-0.003906
16281246000,0.999695,-0.014404,0.018494,-0.001404,0.023438,0.003906,-0.003906
16309701000,0.999695,-0.014404,0.018494,-0.001404,-0.015625,-0.031250,-0.003906
16320307000,0.999695,-0.014404,0.018494,-0.001404,0.023438,0.003906,-0.003906
16349601000,0.999695,-0.014343,0.018555,-0.001404,0.023438,-0.031250,-0.003906
16369760000,0.999695,-0.014343,0.018555,-0.001404,0.023438,-0.031250,0.035156
16396064000,0.999695,-0.014343,0.018555,-0.001404,-0.015625,0.003906,-0.003906
16409195000,0.999695,-0.014343,0.018555,-0.001404,0.023438,0.003906,-0.003906
16428966000,0.999695,-0.014343,0.018555,-0.001404,-0.015625,0.003906,-0.003906
16440254000,0.999695,-0.014343,0.018555,-0.001404,-0.015625,0.003906,0.035156
16469064000,0.999695,-0.014343,0.018555,-0.001404,0.023438,0.003906,0.035156
16480181000,0.999695,-0.014343,0.018555,-0.001404,0.023438,0.003906,-0.003906
16509397000,0.999695,-0.014343,0.018555,-0.001404,-0.015625,-0.031250,-0.003906
16529549000,0.999695,-0.014282,0.018555,-0.001404,-0.015625,-0.031250,-0.003906
16549183000,0.999695,-0.014282,0.018555,-0.001465,-0.023438,-0.031250,-0.003906
16572470000,0.999695,-0.014343,0.018555,-0.001404,-0.023438,0.003906,-0.003906
16589430000,0.999695,-0.014343,0.018555,-0.001465,0.015625,-0.031250,0.035156
16609323000,0.999695,-0.014343,0.018555,-0.001404,-0.023438,0.003906,-0.003906
16629381000,0.999695,-0.014282,0.018555,-0.001404,0.015625,0.003906,-0.003906
16655760000,0.999695,-0.014282,0.018555,-0.001404,0.015625,0.003906,-0.003906
16668329000,0.999695,-0.014282,0.018555,-0.001404,0.015625,0.003906,-0.003906
16688905000,0.999695,-0.014343,0.018555,-0.001404,-0.023438,0.003906,-0.003906
16700254000,0.999695,-0.014343,0.018494,-0.001404,-0.023438,-0.031250,-0.003906
16733901000,0.999695,-0.014343,0.018494,-0.001404,-0.023438,0.003906,0.035156
16748339000,0.999695,-0.014343,0.018555,-0.001404,0.023438,-0.031250,-0.003906
16770531000,0.999695,-0.014343,0.018555,-0.001404,-0.015625,0.003906,0.035156
16789989000,0.999695,-0.014343,0.018555,-0.001404,-0.015625,0.003906,-0.003906
16816453000,0.999695,-0.014343,0.018494,-0.001404,0.023438,0.003906,-0.003906
16827951000,0.999695,-0.014343,0.018555,-0.001404,-0.015625,0.003906,-0.003906
16848657000,0.999695,-0.014343,0.018555,-0.001404,-0.015625,-0.031250,-0.003906
16874912000,0.999695,-0.014343,0.018555,-0.001404,-0.015625,0.003906,-0.003906
16888565000,0.999695,-0.014343,0.018555,-0.001404,-0.015625,0.003906,-0.003906
16907848000,0.999695,-0.014343,0.018555,-0.001404,0.023438,0.003906,-0.003906
16930585000,0.999695,-0.014343,0.018555,-0.001404,-0.015625,0.003906,-0.003906
16948466000,0.999695,-0.014343,0.018555,-0.001404,0.023438,0.003906,0.035156
16968024000,0.999695,-0.014343,0.018555,-0.001404,-0.015625,0.003906,-0.003906
16988251000,0.999695,-0.014343,0.018555,-0.001343,-0.015625,0.003906,-0.003906
17014350000,0.999695,-0.014343,0.018555,-0.001343,-0.015625,0.003906,-0.003906
17027620000,0.999695,-0.014343,0.018555,-0.001343,0.023438,0.003906,0.035156
17048324000,0.999695,-0.014343,0.018555,-0.001343,0.023438,0.003906,-0.003906
17068036000,0.999695,-0.014343,0.018555,-0.001343,-0.015625,0.003906,-0.003906
17087691000,0.999695,-0.014343,0.018555,-0.001343,-0.015625,0.003906,-0.003906
17112072000,0.999695,-0.014343,0.018555,-0.001343,0.023438,0.003906,-0.003906
17127250000,0.999695,-0.014343,0.018555,-0.001343,-0.015625,0.003906,0.035156
17147691000,0.999695,-0.014282,0.018555,-0.001404,0.023438,-0.003906,-0.003906
17167198000,0.999695,-0.014282,0.018555,-0.001343,-0.015625,-0.003906,0.035156
17187183000,0.999695,-0.014282,0.018555,-0.001343,-0.015625,-0.003906,-0.003906
17213187000,0.999695,-0.014282,0.018555,-0.001343,-0.015625,-0.003906,0.035156
17227513000,0.999695,-0.014221,0.018555,-0.001343,-0.015625,-0.003906,-0.003906
17246961000,0.999695,-0.014282,0.018555,-0.001343,0.023438,-0.003906,-0.003906
17269389000,0.999695,-0.014221,0.018555,-0.001343,0.023438,-0.003906,0.035156
17286943000,0.999695,-0.014221,0.018616,-0.001343,0.023438,-0.003906,-0.003906
17307230000,0.999756,-0.014221,0.018555,-0.001343,0.023438,-0.003906,-0.003906
17326938000,0.999756,-0.014221,0.018555,-0.001343,0.023438,-0.003906,0.035156
17357189000,0.999756,-0.014221,0.018555,-0.001343,-0.015625,-0.003906,-0.003906
17366446000,0.999695,-0.014282,0.018555,-0.001343,-0.015625,-0.003906,-0.003906
17386702000,0.999695,-0.014282,0.018555,-0.001343,-0.015625,-0.003906,-0.003906
17407347000,0.999756,-0.014221,0.018555,-0.001343,0.023438,-0.003906,0.035156
17430568000,0.999756,-0.014221,0.018555,-0.001343,0.023438,-0.003906,-0.003906
17447077000,0.999756,-0.014160,0.018555,-0.001343,-0.015625,-0.003906,0.035156
17466299000,0.999756,-0.014160,0.018555,-0.001343,0.023438,-0.003906,-0.003906
17486473000,0.999756,-0.014221,0.018494,-0.001343,-0.015625,-0.003906,-0.003906
17509150000,0.999756,-0.014160,0.018494,-0.001343,0.023438,-0.003906,-0.003906
17526771000,0.999756,-0.014221,0.018494,-0.001343,0.023438,-0.003906,0.035156
17545928000,0.999756,-0.014160,0.018494,-0.001343,-0.015625,0.003906,-0.003906
17567044000,0.999756,-0.014160,0.018494,-0.001343,0.023438,-0.031250,0.035156
17593338000,0.999756,-0.014160,0.018494,-0.001343,0.023438,0.003906,-0.003906
17605725000,0.999756,-0.014160,0.018494,-0.001343,0.023438,0.003906,-0.003906
17626168000,0.999756,-0.014160,0.018494,-0.001343,-0.015625,0.003906,0.035156
17650594000,0.999756,-0.014160,0.018494,-0.001343,-0.015625,0.003906,-0.003906
17666215000,0.999756,-0.014160,0.018494,-0.001343,-0.015625,0.003906,-0.003906
17685463000,0.999756,-0.014160,0.018494,-0.001343,-0.015625,-0.031250,-0.003906
17707488000,0.999756,-0.014160,0.018494,-0.001343,-0.015625,0.003906,-0.003906
17725332000,0.999756,-0.014160,0.018494,-0.001343,-0.015625,0.003906,-0.003906
17745146000,0.999756,-0.014160,0.018494,-0.001343,-0.015625,0.003906,0.035156
17765472000,0.999756,-0.014160,0.018494,-0.001343,-0.015625,0.003906,0.035156
17795250000,0.999756,-0.014160,0.018494,-0.001343,0.023438,0.003906,-0.003906
17805684000,0.999756,-0.014160,0.018494,-0.001343,-0.015625,0.003906,0.035156
17827320000,0.999756,-0.014160,0.018494,-0.001343,0.023438,0.003906,-0.003906
17846156000,0.999756,-0.014160,0.018494,-0.001343,0.023438,0.003906,-0.003906
17866233000,0.999756,-0.014160,0.018494,-0.001343,0.023438,0.003906,-0.003906
17891420000,0.999756,-0.014160,0.018494,-0.001343,0.023438,0.003906,-0.003906
17905494000,0.999756,-0.014160,0.018494,-0.001343,0.023438,0.003906,-0.003906
17924944000,0.999756,-0.014160,0.018494,-0.001343,-0.023438,-0.031250,-0.003906
17954869000,0.999756,-0.014160,0.018494,-0.001343,0.015625,0.003906,-0.003906
17964644000,0.999756,-0.014160,0.018494,-0.001343,0.015625,0.003906,-0.003906
17984871000,0.999756,-0.014160,0.018494,-0.001343,-0.023438,0.003906,-0.003906
18005235000,0.999756,-0.014160,0.018494,-0.001343,0.015625,0.003906,-0.003906
18024633000,0.999756,-0.014160,0.018494,-0.001343,0.015625,0.003906,0.035156
18044384000,0.999756,-0.014160,0.018494,-0.001343,0.015625,-0.031250,-0.003906
18064595000,0.999756,-0.014160,0.018494,-0.001343,-0.023438,-0.031250,0.035156
18084776000,0.999756,-0.014160,0.018494,-0.001343,0.015625,0.003906,-0.003906
18114349000,0.999756,-0.014160,0.018494,-0.001343,-0.023438,0.003906,-0.003906
18125134000,0.999756,-0.014160,0.018494,-0.001343,-0.023438,0.003906,-0.003906
18144440000,0.999756,-0.014160,0.018494,-0.001343,0.015625,0.003906,-0.003906
18164739000,0.999756,-0.014160,0.018494,-0.001343,-0.023438,0.003906,-0.003906
18194347000,0.999756,-0.014160,0.018494,-0.001343,0.015625,0.003906,-0.003906
18204201000,0.999756,-0.014160,0.018494,-0.001343,-0.023438,0.003906,-0.003906
18234108000,0.999756,-0.014160,0.018494,-0.001343,0.015625,0.003906,0.035156
18250107000,0.999756,-0.014160,0.018494,-0.001343,-0.023438,0.003906,0.035156
18263830000,0.999756,-0.014160,0.018494,-0.001343,0.015625,0.003906,0.035156
18289283000,0.999756,-0.014160,0.018494,-0.001343,-0.023438,0.003906,-0.003906
18312666000,0.999756,-0.014160,0.018494,-0.001343,0.015625,-0.031250,-0.003906
18323765000,0.999756,-0.014160,0.018494,-0.001343,-0.023438,0.003906,-0.003906
18343857000,0.999756,-0.014160,0.018494,-0.001343,-0.023438,0.003906,-0.003906
18374442000,0.999756,-0.014160,0.018494,-0.001343,0.023438,0.003906,0.035156
18383513000,0.999756,-0.014160,0.018494,-0.001343,-0.015625,-0.031250,-0.003906
18403561000,0.999756,-0.014160,0.018494,-0.001343,0.023438,0.003906,0.035156
18424254000,0.999756,-0.014160,0.018494,-0.001343,0.023438,-0.031250,-0.003906
18453591000,0.999756,-0.014160,0.018494,-0.001343,0.023438,0.003906,-0.003906
18463596000,0.999756,-0.014160,0.018494,-0.001343,0.023438,0.003906,-0.003906
18483907000,0.999756,-0.014160,0.018494,-0.001343,-0.015625,0.003906,0.035156
18503654000,0.999756,-0.014160,0.018494,-0.001343,-0.015625,0.003906,0.035156
18533890000,0.999756,-0.014160,0.018494,-0.001343,0.023438,0.003906,-0.042969
18543270000,0.999756,-0.014160,0.018494,-0.001343,0.023438,0.003906,-0.003906
18563245000,0.999756,-0.014160,0.018494,-0.001343,-0.015625,-0.031250,0.035156
18583338000,0.999756,-0.014160,0.018494,-0.001343,0.023438,0.003906,-0.003906
18613366000,0.999756,-0.014160,0.018494,-0.001343,-0.015625,0.003906,-0.003906
18624203000,0.999756,-0.014160,0.018494,-0.001343,0.023438,0.003906,-0.003906
18642978000,0.999756,-0.014160,0.018494,-0.001343,0.023438,0.003906,0.035156
18663494000,0.999756,-0.014160,0.018494,-0.001343,-0.015625,0.003906,-0.003906
18688227000,0.999756,-0.014160,0.018494,-0.001343,-0.015625,0.003906,0.035156
18702707000,0.999756,-0.014160,0.018494,-0.001343,-0.015625,0.003906,-0.003906
18723426000,0.999756,-0.014160,0.018494,-0.001343,0.023438,0.003906,-0.003906
18753243000,0.999756,-0.014160,0.018494,-0.001343,0.023438,0.003906,-0.003906
18762889000,0.999756,-0.014160,0.018494,-0.001343,0.023438,0.003906,0.035156
18782848000,0.999756,-0.014160,0.018494,-0.001343,0.023438,0.003906,-0.003906
18812584000,0.999756,-0.014160,0.018494,-0.001343,0.023438,-0.031250,-0.003906
18822557000,0.999756,-0.014160,0.018494,-0.001343,-0.015625,0.003906,-0.003906
18842780000,0.999756,-0.014160,0.018494,-0.001343,-0.015625,0.003906,-0.003906
18862631000,0.999756,-0.014160,0.018494,-0.001343,0.023438,-0.031250,-0.003906
18883919000,0.999756,-0.014160,0.018494,-0.001343,-0.015625,0.003906,0.035156
18908269000,0.999756,-0.014160,0.018494,-0.001343,-0.015625,-0.031250,-0.003906
18923267000,0.999756,-0.014160,0.018494,-0.001343,0.023438,0.003906,-0.003906
18949149000,0.999756,-0.014160,0.018494,-0.001343,0.023438,0.003906,-0.003906
18961969000,0.999756,-0.014160,0.018494,-0.001343,0.664062,-0.031250,0.003906
18982376000,0.999756,-0.014160,0.018433,-0.001343,0.421875,-0.031250,0.078125
19011848000,0.999756,-0.014282,0.018494,-0.001343,0.816406,-0.031250,-0.042969
19023936000,0.999756,-0.014160,0.018494,-0.001404,0.535156,0.121094,0.070312
19042154000,0.999756,-0.014282,0.018494,-0.001404,0.234375,0.042969,0.003906
19071986000,0.999756,-0.014282,0.018494,-0.001404,0.011719,0.121094,0.195312
19081905000,0.999695,-0.014404,0.018494,-0.001404,0.425781,0.003906,0.156250
19102174000,0.999695,-0.014343,0.018494,-0.001465,0.257812,-0.070312,0.078125
19125524000,0.999695,-0.014526,0.018555,-0.001465,-0.066406,0.089844,-0.113281
19151723000,0.999695,-0.014587,0.018616,-0.001526,0.257812,-0.054688,-0.121094
19161787000,0.999695,-0.014648,0.018677,-0.001526,-0.578125,-0.054688,0.187500
19182782000,0.999695,-0.014648,0.018677,-0.001526,-0.011719,-0.015625,-0.195312
19202430000,0.999695,-0.014648,0.018616,-0.001526,-0.472656,0.136719,-0.273438
19232525000,0.999695,-0.015015,0.018616,-0.001587,-0.089844,-0.015625,-0.042969
19241576000,0.999695,-0.015076,0.018555,-0.001587,-0.050781,0.218750,-0.386719
19262094000,0.999695,-0.015137,0.018616,-0.001587,0.066406,-0.085938,0.339844
19282089000,0.999695,-0.015198,0.018616,-0.001648,0.714844,-0.085938,-0.312500
19317648000,0.999695,-0.015259,0.018616,-0.001709,0.218750,-0.085938,-0.464844
19331218000,0.999695,-0.015076,0.018372,-0.001709,0.027344,-0.164062,-0.121094
19351971000,0.999695,-0.015259,0.018494,-0.001709,-0.210938,-0.007812,0.035156
19361684000,0.999695,-0.014954,0.018372,-0.001770,0.140625,0.027344,0.035156
19382089000,0.999695,-0.014832,0.018311,-0.001831,-0.066406,0.066406,0.492188
19402400000,0.999695,-0.014648,0.018250,-0.001831,-0.449219,0.066406,-0.003906
19433870000,0.999695,-0.014709,0.018311,-0.001892,-0.562500,0.058594,-0.195312
19447080000,0.999695,-0.014893,0.018372,-0.001892,-0.718750,-0.093750,0.035156
19461592000,0.999695,-0.014648,0.018250,-0.001953,-0.519531,-0.246094,-0.121094
19481746000,0.999756,-0.014526,0.018127,-0.002014,-0.441406,-0.132812,0.035156
19511951000,0.999695,-0.014832,0.018188,-0.002014,-1.398438,-0.046875,-0.351562
19520751000,0.999695,-0.014893,0.018250,-0.002014,-1.359375,0.066406,0.261719
19541695000,0.999695,-0.014771,0.018188,-0.002075,-1.550781,-0.007812,-0.351562
19570598000,0.999695,-0.014648,0.018188,-0.002014,-0.664062,0.066406,-0.042969
19580499000,0.999695,-0.014709,0.018188,-0.002014,-0.625000,-0.015625,-0.003906
19601696000,0.999695,-0.014709,0.018250,-0.002075,-0.777344,0.019531,-0.003906
19621646000,0.999695,-0.014832,0.018250,-0.002014,-0.625000,0.019531,-0.082031
19650069000,0.999695,-0.014771,0.018250,-0.002075,-0.464844,-0.007812,-0.003906
19660331000,0.999695,-0.014771,0.018250,-0.002075,-0.503906,-0.007812,0.035156
19681458000,0.999695,-0.014709,0.018250,-0.002075,-0.578125,0.027344,-0.042969
19701697000,0.999695,-0.014709,0.018250,-0.002075,-0.148438,-0.007812,0.035156
19729910000,0.999695,-0.014709,0.018250,-0.002136,-0.187500,-0.015625,-0.003906
19753094000,0.999695,-0.014709,0.018250,-0.002136,-0.257812,0.105469,-0.082031
19760498000,0.999695,-0.014771,0.018188,-0.002136,-0.179688,0.066406,-0.003906
19789638000,0.999695,-0.014709,0.018188,-0.002136,-0.179688,0.019531,-0.003906
19800394000,0.999695,-0.014771,0.018188,-0.002136,-0.218750,0.027344,-0.003906
19821673000,0.999695,-0.014771,0.018188,-0.002136,-0.140625,0.027344,-0.003906
19849476000,0.999695,-0.014771,0.018127,-0.002136,-0.171875,0.027344,-0.003906
19861226000,0.999695,-0.014771,0.018127,-0.002136,-0.171875,-0.007812,-0.003906
19881437000,0.999695,-0.014771,0.018127,-0.002136,-0.132812,-0.007812,0.035156
19909773000,0.999695,-0.014771,0.018127,-0.002136,-0.164062,0.027344,-0.003906
19925861000,0.999695,-0.014771,0.018127,-0.002136,-0.125000,0.027344,0.035156
19949675000,0.999695,-0.014771,0.018066,-0.002136,-0.164062,0.027344,-0.003906
19969890000,0.999695,-0.014771,0.018066,-0.002136,0.062500,-0.015625,0.027344
19980324000,0.999695,-0.014771,0.018066,-0.002136,0.062500,0.019531,-0.011719
20009770000,0.999695,-0.014771,0.018127,-0.002136,0.062500,0.019531,-0.011719
20029481000,0.999695,-0.014771,0.018127,-0.002136,0.015625,-0.015625,-0.011719
20040264000,0.999695,-0.014771,0.018127,-0.002136,0.015625,-0.015625,-0.011719
20070097000,0.999695,-0.014771,0.018127,-0.002136,0.015625,-0.015625,-0.011719
20080150000,0.999695,-0.014771,0.018127,-0.002136,0.054688,0.019531,-0.011719
20115686000,0.999695,-0.014771,0.018127,-0.002136,0.007812,0.019531,-0.011719
20129248000,0.999695,-0.014771,0.018127,-0.002136,0.007812,0.019531,0.027344
20159103000,0.999695,-0.014709,0.018127,-0.002197,0.046875,-0.015625,-0.011719
20178775000,0.999695,-0.014709,0.018127,-0.002197,0.007812,0.019531,-0.011719
20196883000,0.999695,-0.014709,0.018127,-0.002197,0.007812,-0.015625,-0.003906
20208987000,0.999695,-0.014709,0.018127,-0.002197,0.000000,-0.015625,-0.003906
20229192000,0.999695,-0.014709,0.018127,-0.002197,0.039062,-0.015625,-0.003906
20255705000,0.999695,-0.014771,0.018066,-0.002197,0.000000,-0.015625,-0.003906
20269650000,0.999695,-0.014771,0.018127,-0.002197,0.000000,0.019531,0.035156
20295873000,0.999695,-0.014771,0.018127,-0.002197,0.000000,-0.015625,-0.003906
20309243000,0.999695,-0.014709,0.018127,-0.002197,0.039062,-0.015625,0.035156
20329118000,0.999695,-0.014709,0.018127,-0.002197,0.000000,-0.015625,0.027344
20349053000,0.999756,-0.014709,0.018127,-0.002197,0.000000,-0.015625,-0.011719
20368747000,0.999756,-0.014709,0.018127,-0.002197,0.000000,-0.015625,-0.011719
20391761000,0.999756,-0.014709,0.018066,-0.002258,0.000000,0.019531,-0.011719
20409450000,0.999756,-0.014709,0.018066,-0.002258,0.000000,0.019531,-0.011719
20429849000,0.999756,-0.014709,0.018127,-0.002258,0.000000,0.019531,-0.003906
20456060000,0.999695,-0.014709,0.018127,-0.002258,0.000000,-0.015625,-0.003906
20468550000,0.999695,-0.014771,0.018066,-0.002258,-0.007812,0.019531,-0.003906
20488946000,0.999695,-0.014771,0.018066,-0.002258,0.031250,0.019531,0.035156
20510879000,0.999695,-0.014771,0.018066,-0.002258,-0.007812,-0.015625,-0.003906
20528489000,0.999695,-0.014771,0.018127,-0.002258,-0.007812,0.019531,-0.003906
20548374000,0.999695,-0.014771,0.018066,-0.002258,-0.007812,-0.015625,-0.003906
20568200000,0.999695,-0.014771,0.018066,-0.002258,0.031250,0.019531,-0.003906
20592576000,0.999695,-0.014771,0.018066,-0.002319,-0.007812,-0.015625,-0.003906
20608248000,0.999695,-0.014771,0.018066,-0.002319,-0.007812,0.019531,-0.003906
20627749000,0.999695,-0.014771,0.018066,-0.002319,-0.007812,0.011719,-0.003906
20647972000,0.999695,-0.014771,0.018066,-0.002319,-0.046875,-0.023438,-0.003906
20677868000,0.999695,-0.014771,0.018066,-0.002319,0.031250,0.011719,-0.003906
20687757000,0.999695,-0.014771,0.018066,-0.002319,0.031250,0.011719,-0.003906
20708402000,0.999695,-0.014771,0.018127,-0.002319,-0.007812,-0.023438,-0.003906
20727037000,0.999695,-0.014771,0.018127,-0.002319,0.031250,-0.023438,-0.003906
20748460000,0.999695,-0.014771,0.018127,-0.002319,-0.007812,-0.023438,-0.003906
20767417000,0.999695,-0.014771,0.018127,-0.002319,-0.007812,0.011719,-0.003906
20788139000,0.999695,-0.014709,0.018127,-0.002319,0.031250,-0.023438,-0.003906
20807956000,0.999695,-0.014709,0.018127,-0.002319,-0.007812,0.011719,0.035156
20831168000,0.999695,-0.014709,0.018127,-0.002319,0.031250,0.011719,-0.003906
20853143000,0.999695,-0.014709,0.018127,-0.002319,0.031250,0.011719,0.035156
20866939000,0.999695,-0.014709,0.018127,-0.002319,-0.007812,-0.023438,-0.003906
20887360000,0.999695,-0.014709,0.018127,-0.002319,0.031250,0.011719,-0.003906
20907284000,0.999695,-0.014709,0.018127,-0.002319,-0.007812,0.011719,-0.003906
20926889000,0.999695,-0.014709,0.018127,-0.002319,-0.007812,0.019531,-0.003906
20949489000,0.999695,-0.014709,0.018127,-0.002319,0.031250,-0.015625,-0.003906
20975507000,0.999695,-0.014709,0.018127,-0.002319,0.031250,0.019531,-0.003906
20986711000,0.999756,-0.014648,0.018127,-0.002319,0.031250,-0.015625,0.035156
21006922000,0.999695,-0.014709,0.018127,-0.002319,-0.007812,-0.015625,-0.003906
21030133000,0.999695,-0.014709,0.018127,-0.002319,-0.007812,-0.015625,-0.003906
21054493000,0.999695,-0.014709,0.018127,-0.002319,0.031250,0.019531,-0.003906
21066373000,0.999695,-0.014709,0.018127,-0.002380,-0.007812,-0.015625,0.035156
21086731000,0.999695,-0.014709,0.018127,-0.002380,-0.007812,0.019531,-0.003906
21110663000,0.999695,-0.014709,0.018127,-0.002380,-0.007812,-0.015625,-0.003906
21127031000,0.999695,-0.014771,0.018066,-0.002380,-0.007812,0.019531,-0.042969
21146637000,0.999695,-0.014771,0.018066,-0.002380,-0.007812,0.019531,-0.003906
21167697000,0.999695,-0.014709,0.018066,-0.002380,-0.007812,-0.015625,-0.003906
21190977000,0.999695,-0.014709,0.018127,-0.002441,-0.007812,-0.015625,-0.003906
21206553000,0.999695,-0.014709,0.018066,-0.002441,-0.007812,-0.007812,-0.003906
21225878000,0.999695,-0.014709,0.018066,-0.002441,-0.007812,0.019531,-0.003906
21246429000,0.999695,-0.014709,0.018066,-0.002441,-0.007812,0.019531,-0.003906
21266610000,0.999756,-0.014709,0.018066,-0.002380,-0.007812,-0.015625,-0.003906
21286028000,0.999756,-0.014709,0.018066,-0.002380,0.031250,-0.015625,-0.003906
21316258000,0.999756,-0.014648,0.018066,-0.002380,-0.007812,-0.015625,-0.003906
21325884000,0.999756,-0.014709,0.018066,-0.002380,-0.007812,0.019531,0.035156
21345727000,0.999756,-0.014709,0.018066,-0.002380,-0.007812,0.019531,-0.003906
21365670000,0.999756,-0.014709,0.018066,-0.002380,0.031250,-0.015625,-0.003906
21391709000,0.999756,-0.014709,0.018066,-0.002380,0.023438,-0.015625,-0.003906
21406226000,0.999756,-0.014709,0.018066,-0.002441,-0.015625,0.019531,0.035156
21425935000,0.999756,-0.014709,0.018066,-0.002441,-0.015625,0.019531,-0.003906
21455782000,0.999756,-0.014709,0.018066,-0.002441,-0.015625,0.019531,0.035156
21472743000,0.999756,-0.014709,0.018066,-0.002441,-0.015625,-0.015625,0.035156
21485047000,0.999756,-0.014709,0.018066,-0.002441,-0.015625,-0.015625,-0.003906
21505986000,0.999756,-0.014709,0.018066,-0.002441,-0.015625,0.019531,-0.011719
21535512000,0.999756,-0.014709,0.018066,-0.002441,0.023438,0.019531,-0.011719
21545207000,0.999756,-0.014709,0.018066,-0.002441,-0.015625,0.019531,-0.011719
21567566000,0.999756,-0.014709,0.018066,-0.002441,0.023438,-0.023438,-0.011719
21594648000,0.999756,-0.014709,0.018066,-0.002441,0.023438,0.011719,0.027344
21605316000,0.999756,-0.014709,0.018066,-0.002441,-0.015625,-0.023438,0.027344
21624918000,0.999756,-0.014709,0.018066,-0.002441,-0.015625,0.011719,-0.011719
21644745000,0.999756,-0.014709,0.018066,-0.002441,0.023438,-0.023438,-0.011719
21670998000,0.999756,-0.014709,0.018066,-0.002441,-0.015625,0.011719,-0.011719
21685544000,0.999756,-0.014709,0.018066,-0.002441,-0.015625,-0.023438,-0.011719
21704654000,0.999756,-0.014709,0.018066,-0.002441,0.023438,0.011719,-0.050781
21725377000,0.999756,-0.014709,0.018066,-0.002441,-0.015625,-0.023438,-0.011719
21754859000,0.999756,-0.014709,0.018066,-0.002441,-0.015625,0.011719,0.027344
21765369000,0.999756,-0.014709,0.018066,-0.002441,-0.015625,0.011719,-0.011719
21786739000,0.999756,-0.014709,0.018066,-0.002441,-0.015625,0.011719,0.027344
21805382000,0.999756,-0.014709,0.018066,-0.002441,-0.015625,-0.023438,-0.011719
21829201000,0.999756,-0.014709,0.018066,-0.002441,0.023438,0.011719,-0.011719
21844469000,0.999756,-0.014709,0.018066,-0.002441,0.023438,-0.023438,-0.011719
21864140000,0.999756,-0.014709,0.018066,-0.002441,-0.015625,-0.023438,0.027344
21884412000,0.999756,-0.014709,0.018066,-0.002441,-0.015625,-0.023438,-0.011719
21910926000,0.999756,-0.014709,0.018066,-0.002441,-0.015625,-0.023438,0.027344
21924709000,0.999756,-0.014709,0.018066,-0.002441,-0.015625,-0.023438,-0.011719
21944135000,0.999756,-0.014709,0.018066,-0.002441,-0.015625,0.011719,-0.011719
21973979000,0.999756,-0.014709,0.018066,-0.002441,-0.015625,-0.023438,0.027344
21984212000,0.999756,-0.014709,0.018066,-0.002441,-0.015625,-0.023438,-0.011719
22004955000,0.999756,-0.014709,0.018066,-0.002441,-0.015625,0.019531,-0.011719
22033720000,0.999756,-0.014709,0.018066,-0.002441,0.023438,0.019531,-0.011719
22044184000,0.999756,-0.014709,0.018066,-0.002441,0.023438,-0.015625,-0.011719
22063990000,0.999756,-0.014709,0.018066,-0.002441,-0.015625,-0.015625,-0.011719
22084555000,0.999756,-0.014709,0.018066,-0.002441,0.023438,0.019531,-0.011719
22113331000,0.999756,-0.014709,0.018066,-0.002441,0.023438,-0.015625,-0.003906
22123951000,0.999756,-0.014709,0.018066,-0.002441,-0.015625,0.019531,-0.003906
22143874000,0.999756,-0.014709,0.018066,-0.002441,-0.015625,-0.015625,-0.003906
22163414000,0.999756,-0.014709,0.018066,-0.002441,-0.015625,-0.015625,-0.003906
22192926000,0.999756,-0.014709,0.018066,-0.002441,-0.015625,-0.015625,-0.003906
22203432000,0.999756,-0.014709,0.018066,-0.002441,-0.015625,0.019531,0.035156
22223535000,0.999756,-0.014709,0.018066,-0.002441,-0.015625,0.019531,-0.003906
22243068000,0.999756,-0.014709,0.018066,-0.002441,-0.015625,-0.015625,-0.003906
22272806000,0.999756,-0.014709,0.018066,-0.002441,-0.015625,-0.015625,0.035156
22282792000,0.999756,-0.014709,0.018066,-0.002441,-0.015625,0.019531,-0.003906
22303487000,0.999756,-0.014709,0.018066,-0.002441,0.023438,-0.015625,-0.003906
22329331000,0.999756,-0.014709,0.018066,-0.002441,-0.015625,0.019531,0.035156
22344168000,0.999756,-0.014709,0.018066,-0.002441,-0.015625,-0.015625,-0.003906
22363468000,0.999756,-0.014709,0.018066,-0.002441,-0.015625,0.019531,-0.003906
22383899000,0.999756,-0.014709,0.018066,-0.002441,-0.015625,0.011719,-0.003906
22412599000,0.999756,-0.014709,0.018066,-0.002441,0.023438,-0.023438,-0.003906
22422636000,0.999756,-0.014709,0.018066,-0.002441,-0.015625,0.011719,0.035156
22443467000,0.999756,-0.014709,0.018066,-0.002441,-0.015625,-0.015625,-0.003906
22462562000,0.999756,-0.014709,0.018066,-0.002441,-0.015625,0.011719,-0.003906
22487700000,0.999756,-0.014709,0.018066,-0.002441,0.023438,-0.015625,-0.003906
22505164000,0.999756,-0.014709,0.018066,-0.002441,0.023438,0.019531,-0.003906
22522655000,0.999756,-0.014709,0.018066,-0.002441,-0.015625,-0.015625,0.035156
22552217000,0.999756,-0.014709,0.018066,-0.002441,-0.015625,-0.015625,-0.003906
22562228000,0.999756,-0.014709,0.018066,-0.002441,-0.015625,0.019531,-0.003906
22582497000,0.999756,-0.014709,0.018066,-0.002441,-0.015625,0.019531,-0.003906
22613121000,0.999756,-0.014709,0.018066,-0.002441,-0.015625,-0.015625,-0.003906
22622483000,0.999756,-0.014709,0.018066,-0.002441,-0.015625,0.019531,-0.003906
22642263000,0.999756,-0.014709,0.018066,-0.002441,-0.007812,-0.015625,-0.003906
22662979000,0.999756,-0.014709,0.018066,-0.002441,-0.007812,-0.015625,-0.003906
22691660000,0.999756,-0.014709,0.018066,-0.002441,-0.007812,-0.015625,0.035156
22702772000,0.999756,-0.014709,0.018066,-0.002441,-0.007812,0.019531,-0.003906
22722706000,0.999756,-0.014709,0.018066,-0.002441,-0.007812,0.019531,0.035156
22742408000,0.999756,-0.014709,0.018066,-0.002441,0.031250,0.019531,0.035156
22762450000,0.999756,-0.014709,0.018066,-0.002441,-0.007812,-0.023438,-0.003906
22782713000,0.999756,-0.014709,0.018066,-0.002441,-0.007812,0.011719,0.035156
22801865000,0.999756,-0.014709,0.018066,-0.002441,-0.007812,0.011719,-0.003906
22822571000,0.999756,-0.014709,0.018066,-0.002441,-0.007812,-0.023438,-0.003906
22842351000,0.999756,-0.014709,0.018066,-0.002441,-0.007812,-0.023438,-0.003906
22862979000,0.999756,-0.014709,0.018066,-0.002441,-0.007812,0.011719,-0.003906
22891240000,0.999756,-0.014709,0.018066,-0.002441,-0.007812,0.011719,-0.003906
22901076000,0.999756,-0.014709,0.018066,-0.002441,0.031250,0.011719,-0.003906
22922136000,0.999756,-0.014709,0.018066,-0.002441,0.031250,0.011719,-0.003906
22950970000,0.999756,-0.014709,0.018066,-0.002441,-0.007812,0.011719,-0.003906
22967312000,0.999756,-0.014709,0.018066,-0.002441,-0.007812,0.011719,0.035156
22981982000,0.999756,-0.014709,0.018005,-0.002441,0.031250,-0.023438,0.035156
23002045000,0.999756,-0.014709,0.018005,-0.002441,0.031250,-0.023438,-0.003906
23030876000,0.999756,-0.014709,0.018005,-0.002441,0.031250,0.011719,0.035156
23041409000,0.999756,-0.014709,0.018005,-0.002441,-0.007812,-0.023438,-0.003906
23061673000,0.999756,-0.014709,0.018005,-0.002380,-0.007812,-0.023438,-0.003906
23081807000,0.999756,-0.014709,0.018005,-0.002441,-0.007812,0.011719,-0.003906
23101912000,0.999756,-0.014709,0.018005,-0.002441,-0.007812,-0.023438,-0.003906
23130760000,0.999756,-0.014648,0.018066,-0.002441,-0.007812,-0.023438,-0.003906
23140801000,0.999756,-0.014648,0.018005,-0.002441,-0.007812,0.011719,-0.003906
23162402000,0.999756,-0.014648,0.018005,-0.002380,-0.007812,-0.023438,0.035156
23190546000,0.999756,-0.014648,0.018005,-0.002441,-0.007812,0.019531,-0.003906
23200287000,0.999756,-0.014648,0.018005,-0.002441,0.031250,-0.015625,-0.003906
23230179000,0.999756,-0.014648,0.018005,-0.002441,0.031250,-0.015625,-0.003906
23247514000,0.999756,-0.014648,0.018066,-0.002441,-0.007812,-0.015625,-0.003906
23261673000,0.999756,-0.014648,0.018066,-0.002441,-0.007812,-0.015625,-0.003906
23281406000,0.999756,-0.014648,0.018066,-0.002441,-0.007812,-0.015625,0.070312
23301970000,0.999756,-0.014648,0.018127,-0.002380,0.000000,0.019531,-0.003906
23331146000,0.999756,-0.014648,0.018066,-0.002441,0.078125,-0.015625,0.035156
23340763000,0.999756,-0.014648,0.018066,-0.002441,-0.007812,0.019531,-0.003906
23361690000,0.999756,-0.014709,0.018066,-0.002441,-0.007812,0.019531,0.035156
23383065000,0.999695,-0.014709,0.018127,-0.002441,0.031250,-0.015625,-0.003906
23407711000,0.999695,-0.014709,0.018127,-0.002380,0.070312,-0.015625,0.035156
23421304000,0.999695,-0.014832,0.018127,-0.002380,0.863281,-0.015625,0.035156
23441724000,0.999695,-0.014832,0.018127,-0.002380,1.003906,0.019531,-0.003906
23469395000,0.999695,-0.014893,0.018127,-0.002380,0.265625,-0.015625,-0.160156
23480177000,0.999695,-0.014954,0.018066,-0.002380,0.343750,0.175781,-0.121094
23516397000,0.999695,-0.014832,0.018066,-0.002441,0.097656,-0.015625,0.035156
23529073000,0.999756,-0.014648,0.018127,-0.002441,0.136719,-0.054688,-0.121094
23540309000,0.999695,-0.014709,0.018127,-0.002441,-0.054688,0.058594,-0.128906
23561668000,0.999695,-0.014709,0.018127,-0.002441,-0.316406,0.058594,-0.242188
23589322000,0.999756,-0.014648,0.018127,-0.002441,0.250000,0.058594,-0.167969
23600250000,0.999695,-0.014771,0.018066,-0.002502,0.597656,0.019531,0.218750
23637938000,0.999756,-0.014709,0.017944,-0.002502,0.351562,-0.132812,-0.050781
23649132000,0.999695,-0.014832,0.018127,-0.002502,0.234375,-0.054688,0.179688
23669171000,0.999695,-0.014893,0.018066,-0.002563,0.074219,0.097656,-0.386719
23680085000,0.999695,-0.015015,0.018127,-0.002563,0.226562,-0.046875,-0.195312
23713651000,0.999695,-0.014893,0.018066,-0.002625,0.000000,-0.015625,0.101562
23720311000,0.999695,-0.014893,0.018066,-0.002625,-0.660156,0.058594,0.187500
23749277000,0.999695,-0.014893,0.018005,-0.002747,-0.125000,0.175781,-0.312500
23768635000,0.999695,-0.014954,0.018005,-0.002747,-0.777344,0.019531,0.035156
23792580000,0.999695,-0.014893,0.018066,-0.002747,-0.402344,-0.046875,0.109375
23808688000,0.999695,-0.014771,0.018005,-0.002808,-0.093750,0.019531,-0.121094
23829508000,0.999756,-0.014465,0.017883,-0.002808,-0.207031,0.019531,0.261719
23848681000,0.999756,-0.014343,0.017822,-0.002869,-0.402344,-0.101562,-0.082031
23860383000,0.999756,-0.014648,0.017944,-0.002869,-0.476562,0.203125,-0.003906
23888504000,0.999756,-0.014648,0.017944,-0.002930,-0.246094,-0.015625,0.109375
23908321000,0.999756,-0.014709,0.017883,-0.002930,-0.714844,-0.093750,0.148438
23928940000,0.999756,-0.014709,0.017883,-0.002930,-1.058594,0.058594,0.187500
23953182000,0.999756,-0.014587,0.017944,-0.002930,-0.945312,0.175781,-0.042969
23968307000,0.999756,-0.014343,0.017700,-0.002930,-0.675781,-0.023438,0.117188
23991534000,0.999756,-0.014343,0.017700,-0.002930,-0.062500,-0.023438,-0.035156
24008038000,0.999756,-0.014343,0.017639,-0.002930,-0.292969,0.011719,0.003906
24028563000,0.999756,-0.014343,0.017639,-0.002930,-0.554688,0.011719,0.035156
24048685000,0.999756,-0.014343,0.017639,-0.002930,-0.093750,-0.023438,0.035156
24068507000,0.999756,-0.014343,0.017639,-0.002930,-0.093750,0.011719,0.035156
24088297000,0.999756,-0.014404,0.017639,-0.002930,-0.054688,-0.023438,0.003906
24114468000,0.999756,-0.014404,0.017639,-0.002930,-0.054688,0.011719,0.003906
24127916000,0.999756,-0.014465,0.017639,-0.002869,0.019531,-0.023438,0.042969
24148776000,0.999756,-0.014526,0.017639,-0.002869,-0.054688,-0.023438,0.042969
24167691000,0.999756,-0.014526,0.017639,-0.002930,-0.171875,0.019531,0.003906
24188165000,0.999756,-0.014587,0.017639,-0.002930,0.136719,-0.015625,0.003906
24207919000,0.999756,-0.014587,0.017639,-0.002930,0.441406,0.019531,0.042969
24227315000,0.999756,-0.014587,0.017578,-0.002930,-0.054688,0.058594,0.003906
24252291000,0.999756,-0.014526,0.017517,-0.002930,-0.371094,0.058594,-0.082031
24267902000,0.999756,-0.014526,0.017517,-0.002991,-0.601562,0.019531,0.035156
24287442000,0.999756,-0.014526,0.017517,-0.002991,-0.054688,-0.015625,0.035156
24307275000,0.999756,-0.014526,0.017517,-0.002991,-0.054688,0.019531,-0.003906
24330558000,0.999756,-0.014465,0.017517,-0.002930,0.402344,0.019531,0.035156
24348003000,0.999756,-0.014404,0.017456,-0.002930,0.367188,0.011719,-0.042969
24367578000,0.999756,-0.014465,0.017395,-0.002991,-0.476562,0.050781,-0.042969
24387473000,0.999756,-0.014587,0.017395,-0.002991,-0.515625,0.019531,-0.003906
24417190000,0.999756,-0.014526,0.017395,-0.002991,-0.207031,0.136719,-0.160156
24427023000,0.999756,-0.014526,0.017334,-0.003052,-0.015625,-0.093750,0.148438
24449155000,0.999756,-0.014526,0.017334,-0.002991,-0.093750,0.019531,-0.003906
24467035000,0.999756,-0.014526,0.017334,-0.002991,-0.093750,0.019531,0.035156
24489260000,0.999756,-0.014526,0.017334,-0.002991,-0.054688,0.019531,-0.003906
24507560000,0.999756,-0.014465,0.017334,-0.002991,-0.054688,-0.015625,0.035156
24526547000,0.999756,-0.014526,0.017334,-0.002991,-0.046875,0.019531,-0.003906
24547141000,0.999756,-0.014465,0.017334,-0.002991,-0.085938,0.019531,0.035156
24577129000,0.999756,-0.014526,0.017334,-0.002991,-0.046875,0.019531,-0.003906
24586480000,0.999756,-0.014526,0.017273,-0.003052,-0.046875,0.019531,0.035156
24606406000,0.999756,-0.014526,0.017273,-0.003052,-0.085938,0.019531,-0.003906
24626542000,0.999756,-0.014526,0.017273,-0.003052,-0.046875,0.019531,0.035156
24656870000,0.999756,-0.014465,0.017273,-0.003052,-0.046875,0.019531,-0.003906
24673697000,0.999756,-0.014465,0.017273,-0.003052,-0.085938,0.019531,-0.042969
24686934000,0.999756,-0.014404,0.017273,-0.003052,-0.046875,-0.023438,-0.003906
24705981000,0.999756,-0.014404,0.017273,-0.003113,-0.046875,0.011719,-0.003906
24727986000,0.999756,-0.014404,0.017273,-0.003113,-0.046875,0.011719,-0.003906
24752468000,0.999756,-0.014465,0.017273,-0.003113,0.015625,-0.023438,-0.003906
24766714000,0.999756,-0.014465,0.017273,-0.003113,-0.023438,0.011719,-0.003906
24785957000,0.999756,-0.014465,0.017273,-0.003113,0.054688,-0.062500,0.070312
24806422000,0.999756,-0.014465,0.017273,-0.003113,0.015625,0.011719,0.035156
24833324000,0.999756,-0.014465,0.017273,-0.003113,0.015625,0.011719,0.035156
24846618000,0.999756,-0.014465,0.017273,-0.003113,0.015625,-0.023438,-0.003906
24865919000,0.999756,-0.014465,0.017273,-0.003113,0.015625,0.011719,0.035156
24896329000,0.999756,-0.014465,0.017273,-0.003113,0.015625,0.019531,-0.003906
24909302000,0.999756,-0.014465,0.017273,-0.003113,0.015625,0.019531,-0.003906
24925563000,0.999756,-0.014465,0.017273,-0.003113,-0.023438,0.011719,-0.003906
24945685000,0.999756,-0.014465,0.017212,-0.003113,0.015625,0.011719,0.035156
24966525000,0.999756,-0.014526,0.017212,-0.003113,0.007812,0.019531,-0.003906
24992457000,0.999756,-0.014526,0.017212,-0.003113,-0.039062,0.019531,-0.003906
25005458000,0.999756,-0.014526,0.017212,-0.003113,0.015625,0.019531,0.035156
25025903000,0.999756,-0.014465,0.017212,-0.003113,0.007812,0.019531,-0.003906
25046445000,0.999756,-0.014526,0.017212,-0.003113,0.007812,0.011719,-0.011719
25071577000,0.999756,-0.014526,0.017212,-0.003113,-0.031250,0.011719,-0.003906
25085126000,0.999756,-0.014526,0.017212,-0.003113,0.007812,0.011719,-0.003906
25105508000,0.999756,-0.014526,0.017212,-0.003113,-0.023438,0.011719,-0.003906
25130114000,0.999756,-0.014587,0.017212,-0.003113,0.015625,-0.023438,0.035156
25145143000,0.999756,-0.014587,0.017212,-0.003113,0.000000,0.011719,0.035156
25167142000,0.999756,-0.014587,0.017212,-0.003113,0.007812,0.011719,-0.003906
25184948000,0.999756,-0.014587,0.017212,-0.003052,0.000000,0.011719,-0.003906
25215731000,0.999756,-0.014587,0.017212,-0.003113,0.000000,0.011719,-0.003906
25224778000,0.999756,-0.014587,0.017212,-0.003052,0.000000,0.011719,-0.003906
25244812000,0.999756,-0.014587,0.017212,-0.003052,0.000000,0.011719,-0.003906
25264547000,0.999756,-0.014587,0.017212,-0.003113,0.000000,0.003906,-0.003906
25295708000,0.999756,-0.014587,0.017151,-0.003052,-0.031250,0.003906,-0.003906
25311202000,0.999756,-0.014587,0.017212,-0.003052,0.007812,0.003906,-0.003906
25324969000,0.999756,-0.014587,0.017151,-0.003052,0.007812,0.003906,-0.003906
25344895000,0.999756,-0.014587,0.017151,-0.003052,-0.031250,0.003906,-0.003906
25366642000,0.999756,-0.014587,0.017212,-0.003052,0.007812,0.003906,-0.003906
25390767000,0.999756,-0.014587,0.017151,-0.003113,0.007812,0.003906,-0.003906
25404710000,0.999756,-0.014587,0.017151,-0.003113,-0.031250,0.003906,-0.003906
25424097000,0.999756,-0.014587,0.017212,-0.003113,-0.031250,0.003906,0.035156
25445249000,0.999756,-0.014587,0.017212,-0.003113,0.007812,0.003906,0.035156
25474244000,0.999756,-0.014587,0.017212,-0.003113,0.007812,-0.031250,-0.003906
25484630000,0.999756,-0.014587,0.017212,-0.003113,0.007812,0.003906,-0.003906
25503833000,0.999756,-0.014587,0.017212,-0.003113,0.007812,0.003906,0.035156
25534258000,0.999756,-0.014587,0.017212,-0.003113,0.007812,0.003906,-0.003906
25550093000,0.999756,-0.014587,0.017212,-0.003113,-0.031250,-0.031250,-0.003906
25563939000,0.999756,-0.014587,0.017212,-0.003113,-0.031250,0.003906,0.035156
25584865000,0.999756,-0.014526,0.017212,-0.003113,0.007812,0.003906,-0.003906
25614314000,0.999756,-0.014526,0.017212,-0.003174,0.007812,-0.031250,-0.003906
25623823000,0.999756,-0.014526,0.017212,-0.003174,0.007812,-0.031250,-0.003906
25651082000,0.999756,-0.014587,0.017212,-0.003174,-0.031250,0.003906,-0.003906
25663877000,0.999756,-0.014526,0.017212,-0.003174,0.007812,0.003906,0.035156
25684675000,0.999756,-0.014526,0.017212,-0.003174,-0.031250,0.003906,-0.042969
25709195000,0.999756,-0.014587,0.017212,-0.003174,0.007812,0.003906,0.035156
25723309000,0.999756,-0.014587,0.017212,-0.003174,-0.031250,-0.031250,-0.003906
25744332000,0.999756,-0.014587,0.017212,-0.003174,0.007812,0.003906,-0.003906
25763844000,0.999756,-0.014587,0.017212,-0.003174,0.007812,0.003906,-0.003906
25784292000,0.999756,-0.014648,0.017212,-0.003174,0.007812,0.003906,0.035156
25803633000,0.999756,-0.014648,0.017212,-0.003174,0.007812,0.003906,0.035156
25824438000,0.999756,-0.014648,0.017212,-0.003174,0.007812,-0.031250,-0.003906
25854101000,0.999756,-0.014648,0.017212,-0.003174,0.007812,0.003906,-0.003906
25863158000,0.999756,-0.014648,0.017212,-0.003174,0.007812,0.003906,-0.003906
25895155000,0.999756,-0.014709,0.017212,-0.003174,-0.031250,0.003906,-0.003906
25913462000,0.999756,-0.014709,0.017212,-0.003235,-0.031250,0.003906,-0.003906
25930117000,0.999756,-0.014648,0.017212,-0.003235,-0.031250,0.003906,-0.003906
25943363000,0.999756,-0.014709,0.017273,-0.003235,0.015625,0.003906,-0.003906
25963608000,0.999756,-0.014648,0.017273,-0.003235,0.015625,-0.031250,0.035156
25993800000,0.999756,-0.014648,0.017273,-0.003235,0.015625,0.003906,0.035156
26003254000,0.999756,-0.014709,0.017273,-0.003235,0.015625,0.003906,0.035156
26023173000,0.999756,-0.014648,0.017273,-0.003235,0.015625,0.003906,-0.003906
26053257000,0.999756,-0.014648,0.017273,-0.003235,0.015625,0.003906,-0.003906
26063250000,0.999756,-0.014648,0.017273,-0.003235,0.015625,0.003906,0.035156
26083157000,0.999756,-0.014648,0.017273,-0.003235,0.015625,0.003906,-0.003906
26103347000,0.999756,-0.014648,0.017334,-0.003235,0.015625,0.003906,-0.003906
26132380000,0.999756,-0.014648,0.017273,-0.003296,0.015625,0.003906,-0.003906
26142605000,0.999756,-0.014648,0.017334,-0.003296,-0.023438,0.003906,-0.003906
26162777000,0.999756,-0.014648,0.017334,-0.003296,0.015625,0.003906,-0.003906
26182538000,0.999756,-0.014648,0.017334,-0.003296,0.015625,-0.031250,-0.003906
26212403000,0.999756,-0.014648,0.017334,-0.003296,0.015625,0.003906,0.035156
26222217000,0.999756,-0.014648,0.017334,-0.003296,0.015625,0.003906,-0.003906
26242363000,0.999756,-0.014648,0.017334,-0.003296,0.007812,0.003906,-0.003906
26262545000,0.999756,-0.014648,0.017334,-0.003296,0.007812,0.003906,0.035156
26292926000,0.999756,-0.014648,0.017334,-0.003296,0.007812,0.003906,-0.003906
26302428000,0.999756,-0.014648,0.017334,-0.003296,0.007812,-0.031250,0.035156
26324158000,0.999756,-0.014648,0.017334,-0.003296,-0.031250,0.003906,0.035156
26342732000,0.999756,-0.014648,0.017334,-0.003296,-0.031250,0.003906,0.035156
26362128000,0.999756,-0.014648,0.017334,-0.003296,-0.031250,0.003906,-0.003906
26382597000,0.999756,-0.014648,0.017334,-0.003296,0.007812,0.003906,-0.003906
26411829000,0.999756,-0.014648,0.017334,-0.003296,0.015625,-0.031250,-0.003906
26427903000,0.999756,-0.014648,0.017334,-0.003296,0.015625,0.003906,-0.003906
26442283000,0.999756,-0.014648,0.017334,-0.003296,0.015625,-0.031250,-0.003906
26462448000,0.999756,-0.014648,0.017334,-0.003296,-0.023438,0.003906,0.035156
26491576000,0.999756,-0.014648,0.017334,-0.003296,0.015625,0.003906,0.035156
26507895000,0.999756,-0.014648,0.017334,-0.003296,0.015625,0.003906,-0.003906
26522080000,0.999756,-0.014648,0.017334,-0.003296,0.015625,0.003906,0.035156
26551314000,0.999756,-0.014648,0.017334,-0.003296,0.015625,0.003906,-0.003906
26571983000,0.999756,-0.014648,0.017334,-0.003296,-0.023438,0.003906,-0.003906
26587036000,0.999756,-0.014648,0.017334,-0.003296,0.015625,0.003906,-0.003906
26602793000,0.999756,-0.014648,0.017334,-0.003296,0.015625,0.003906,-0.042969
26628114000,0.999756,-0.014648,0.017334,-0.003296,-0.023438,0.003906,0.035156
26641890000,0.999756,-0.014648,0.017334,-0.003296,0.015625,0.003906,-0.003906
26671330000,0.999756,-0.014648,0.017334,-0.003296,0.015625,0.003906,-0.003906
26690830000,0.999756,-0.014648,0.017334,-0.003296,0.015625,0.003906,-0.003906
26708512000,0.999756,-0.014648,0.017334,-0.003296,0.015625,0.003906,0.035156
26721602000,0.999756,-0.014648,0.017334,-0.003296,0.015625,-0.031250,-0.003906
26748117000,0.999756,-0.014648,0.017334,-0.003296,0.015625,0.003906,0.035156
26761796000,0.999756,-0.014648,0.017334,-0.003296,-0.023438,-0.031250,-0.003906
26781686000,0.999756,-0.014648,0.017334,-0.003296,0.015625,0.003906,0.035156
26801657000,0.999756,-0.014648,0.017334,-0.003296,0.015625,0.003906,-0.003906
26830811000,0.999756,-0.014648,0.017334,-0.003296,-0.023438,-0.031250,-0.003906
26841014000,0.999756,-0.014648,0.017334,-0.003296,0.015625,0.003906,-0.003906
26862423000,0.999756,-0.014648,0.017334,-0.003296,-0.023438,0.003906,-0.003906
26881714000,0.999756,-0.014648,0.017334,-0.003296,-0.023438,0.003906,-0.003906
26910719000,0.999756,-0.014648,0.017334,-0.003296,0.015625,0.003906,-0.003906
26920242000,0.999756,-0.014648,0.017334,-0.003296,-0.023438,-0.031250,-0.003906
26941697000,0.999756,-0.014648,0.017334,-0.003296,0.015625,0.042969,-0.003906
26961667000,0.999756,-0.014648,0.017334,-0.003296,0.015625,0.003906,-0.003906
26990040000,0.999756,-0.014648,0.017334,-0.003296,0.015625,-0.031250,-0.003906
27000233000,0.999756,-0.014648,0.017334,-0.003296,0.015625,0.003906,-0.003906
27021729000,0.999756,-0.014648,0.017334,-0.003296,0.015625,-0.031250,0.035156
27041681000,0.999756,-0.014648,0.017334,-0.003296,-0.023438,0.003906,-0.003906
27070198000,0.999756,-0.014648,0.017334,-0.003296,-0.023438,0.003906,-0.003906
27080343000,0.999756,-0.014648,0.017334,-0.003296,0.015625,0.003906,-0.003906
27117454000,0.999756,-0.014648,0.017334,-0.003296,0.015625,-0.031250,-0.003906
27129989000,0.999756,-0.014648,0.017334,-0.003296,0.015625,-0.031250,-0.003906
27149860000,0.999756,-0.014648,0.017334,-0.003296,-0.023438,0.003906,-0.042969
27160303000,0.999756,-0.014648,0.017334,-0.003296,0.015625,0.003906,0.035156
27189548000,0.999756,-0.014648,0.017334,-0.003296,0.007812,0.003906,0.035156
27210426000,0.999756,-0.014648,0.017334,-0.003296,-0.031250,0.003906,-0.003906
27229480000,0.999756,-0.014648,0.017334,-0.003296,0.007812,-0.031250,-0.003906
27240335000,0.999756,-0.014648,0.017334,-0.003296,0.007812,0.003906,-0.003906
27269095000,0.999756,-0.014648,0.017334,-0.003296,0.007812,0.003906,0.035156
27289118000,0.999756,-0.014648,0.017334,-0.003296,0.007812,0.003906,-0.003906
27309979000,0.999756,-0.014648,0.017334,-0.003296,0.007812,0.003906,-0.003906
27329510000,0.999756,-0.014648,0.017334,-0.003296,-0.031250,-0.031250,-0.003906
27349936000,0.999756,-0.014648,0.017334,-0.003296,-0.023438,0.003906,0.035156
27360333000,0.999756,-0.014648,0.017334,-0.003296,0.015625,0.003906,-0.003906
27389446000,0.999756,-0.014648,0.017334,-0.003296,0.015625,0.003906,-0.003906
27413354000,0.999756,-0.014648,0.017334,-0.003296,-0.023438,0.003906,-0.003906
27429251000,0.999756,-0.014648,0.017334,-0.003296,0.015625,0.003906,-0.042969
27448627000,0.999756,-0.014648,0.017334,-0.003296,0.015625,0.003906,-0.003906
27469038000,0.999756,-0.014648,0.017334,-0.003296,0.015625,0.003906,0.035156
27494155000,0.999756,-0.014648,0.017334,-0.003296,-0.023438,-0.031250,-0.003906
27509467000,0.999756,-0.014648,0.017334,-0.003296,-0.023438,0.003906,-0.003906
27528527000,0.999756,-0.014648,0.017334,-0.003296,0.015625,0.003906,-0.003906
27548479000,0.999756,-0.014648,0.017334,-0.003296,-0.023438,0.003906,-0.003906
27568547000,0.999756,-0.014648,0.017334,-0.003296,-0.023438,0.003906,-0.042969
27588471000,0.999756,-0.014648,0.017334,-0.003296,0.015625,0.003906,-0.003906
27612600000,0.999756,-0.014648,0.017273,-0.003235,0.972656,-0.031250,-0.003906
27628255000,0.999756,-0.014648,0.017517,-0.003113,1.570312,-0.031250,0.187500
27648078000,0.999756,-0.015015,0.017639,-0.002930,0.949219,-0.023438,-0.082031
27668198000,0.999695,-0.015015,0.017883,-0.002930,1.562500,-0.140625,-0.003906
27691474000,0.999756,-0.014893,0.017700,-0.003052,1.484375,-0.093750,-0.386719
27708123000,0.999756,-0.014648,0.017700,-0.003113,0.128906,0.167969,-0.312500
27728450000,0.999756,-0.014709,0.017639,-0.003174,-0.828125,0.128906,0.070312
27748010000,0.999695,-0.015137,0.017944,-0.003174,-0.914062,-0.062500,0.300781
27768807000,0.999695,-0.015198,0.018127,-0.003235,-0.714844,-0.054688,0.378906
27793784000,0.999695,-0.015015,0.017883,-0.003235,-0.796875,-0.054688,0.003906
27807969000,0.999695,-0.015076,0.017944,-0.003174,-0.796875,-0.054688,-0.042969
27829772000,0.999695,-0.015015,0.017944,-0.003174,-0.300781,-0.093750,-0.425781
27848596000,0.999695,-0.015137,0.017883,-0.003235,0.066406,-0.015625,0.070312
27867516000,0.999695,-0.014954,0.017883,-0.003235,0.144531,-0.093750,-0.042969
27887735000,0.999695,-0.015076,0.017944,-0.003235,0.375000,0.097656,-0.195312
27907394000,0.999695,-0.015076,0.017822,-0.003235,0.296875,0.058594,-0.312500
27934967000,0.999756,-0.014832,0.017700,-0.003235,0.136719,-0.015625,0.078125
27947211000,0.999695,-0.015137,0.017822,-0.003296,0.402344,0.058594,0.109375
27967231000,0.999695,-0.015137,0.017883,-0.003296,-0.132812,-0.054688,0.156250
27988206000,0.999695,-0.015015,0.017700,-0.003357,-0.324219,0.019531,-0.113281
28013267000,0.999695,-0.015076,0.017761,-0.003418,-0.292969,0.097656,-0.035156
28027656000,0.999695,-0.015076,0.017761,-0.003418,-0.984375,0.019531,0.156250
28050435000,0.999695,-0.015076,0.017761,-0.003418,-0.792969,-0.015625,0.042969
28067608000,0.999695,-0.015015,0.017700,-0.003418,-0.601562,0.019531,0.003906
28087404000,0.999695,-0.015259,0.017700,-0.003418,-0.867188,0.019531,0.042969
28113306000,0.999695,-0.015320,0.017639,-0.003418,-0.410156,-0.007812,0.003906
28127243000,0.999695,-0.015198,0.017578,-0.003418,0.242188,-0.007812,0.003906
28147485000,0.999756,-0.015076,0.017517,-0.003418,0.433594,0.027344,-0.074219
28170543000,0.999756,-0.015137,0.017517,-0.003418,0.242188,0.019531,-0.035156
28186700000,0.999695,-0.015198,0.017639,-0.003418,0.394531,0.027344,-0.035156
28206783000,0.999695,-0.015137,0.017517,-0.003418,1.199219,0.066406,-0.378906
28226543000,0.999695,-0.015381,0.017517,-0.003479,-0.214844,-0.007812,0.003906
28257007000,0.999695,-0.015381,0.017639,-0.003540,-1.367188,-0.007812,0.078125
28272099000,0.999695,-0.015381,0.017639,-0.003540,-1.136719,0.027344,-0.035156
28287004000,0.999695,-0.015320,0.017578,-0.003540,-0.523438,0.027344,0.003906
28306187000,0.999695,-0.015259,0.017517,-0.003540,-0.332031,0.027344,0.042969
28330560000,0.999756,-0.015137,0.017395,-0.003540,-0.675781,0.066406,-0.035156
28346093000,0.999756,-0.015137,0.017395,-0.003540,-0.031250,0.027344,0.003906
28366660000,0.999756,-0.015137,0.017456,-0.003540,-0.222656,-0.007812,0.003906
28391001000,0.999695,-0.015198,0.017517,-0.003540,-0.214844,0.027344,-0.035156
28406787000,0.999695,-0.015137,0.017517,-0.003540,-0.410156,-0.007812,0.042969
28426343000,0.999695,-0.015137,0.017517,-0.003479,0.011719,-0.007812,0.042969
28455965000,0.999695,-0.015198,0.017517,-0.003479,0.519531,-0.007812,-0.003906
28473012000,0.999695,-0.015259,0.017456,-0.003479,0.250000,-0.046875,-0.003906
28486409000,0.999695,-0.015259,0.017517,-0.003479,-0.132812,-0.007812,-0.042969
28506393000,0.999695,-0.015320,0.017578,-0.003540,0.097656,-0.007812,-0.003906
28536155000,0.999695,-0.015503,0.017578,-0.003479,0.019531,-0.085938,0.003906
28553045000,0.999695,-0.015320,0.017517,-0.003540,-0.132812,0.105469,-0.035156
28565354000,0.999695,-0.015381,0.017517,-0.003479,-0.746094,0.066406,0.156250
28585393000,0.999695,-0.015442,0.017456,-0.003479,-0.707031,-0.007812,0.042969
28606507000,0.999695,-0.015442,0.017456,-0.003479,-0.402344,-0.007812,-0.035156
28629984000,0.999695,-0.015442,0.017456,-0.003479,-0.093750,-0.046875,0.003906
28647508000,0.999695,-0.015442,0.017456,-0.003540,-0.093750,-0.007812,0.003906
28665748000,0.999695,-0.015442,0.017456,-0.003540,-0.054688,-0.007812,0.042969
28686195000,0.999695,-0.015381,0.017456,-0.003540,-0.046875,-0.007812,0.035156
28714948000,0.999695,-0.015381,0.017334,-0.003540,-0.164062,0.027344,-0.082031
28725492000,0.999695,-0.015381,0.017334,-0.003540,-0.132812,-0.007812,-0.082031
28745189000,0.999695,-0.015381,0.017334,-0.003540,-0.093750,-0.007812,-0.042969
28764915000,0.999695,-0.015381,0.017334,-0.003540,-0.093750,0.027344,-0.042969
28794832000,0.999695,-0.015381,0.017334,-0.003540,-0.054688,-0.007812,-0.003906
28812197000,0.999695,-0.015381,0.017334,-0.003540,-0.093750,-0.007812,-0.003906
28824939000,0.999695,-0.015381,0.017334,-0.003540,-0.054688,-0.007812,-0.003906
28844881000,0.999695,-0.015381,0.017334,-0.003601,-0.054688,-0.007812,-0.003906
28874457000,0.999695,-0.015381,0.017395,-0.003540,-0.046875,-0.007812,-0.003906
28884657000,0.999695,-0.015381,0.017395,-0.003540,-0.085938,0.027344,-0.003906
28904570000,0.999695,-0.015381,0.017395,-0.003540,-0.085938,-0.007812,-0.003906
28925546000,0.999695,-0.015381,0.017334,-0.003540,-0.046875,-0.007812,-0.003906
28957461000,0.999695,-0.015442,0.017334,-0.003540,0.015625,0.035156,0.027344
28965597000,0.999695,-0.015442,0.017334,-0.003540,0.015625,0.000000,-0.011719
28984545000,0.999695,-0.015442,0.017395,-0.003540,0.015625,0.000000,0.027344
29005410000,0.999695,-0.015442,0.017395,-0.003540,0.015625,0.000000,-0.011719
29034442000,0.999695,-0.015442,0.017395,-0.003540,0.015625,0.000000,-0.011719
29045200000,0.999695,-0.015442,0.017395,-0.003540,0.015625,0.000000,-0.011719
29064954000,0.999695,-0.015442,0.017395,-0.003540,0.015625,0.000000,-0.011719
29085285000,0.999695,-0.015442,0.017395,-0.003540,0.015625,0.000000,-0.011719
29114926000,0.999695,-0.015442,0.017334,-0.003540,0.007812,0.000000,0.027344
29124527000,0.999695,-0.015442,0.017395,-0.003540,0.007812,0.000000,-0.011719
29144123000,0.999695,-0.015442,0.017334,-0.003540,0.007812,0.000000,-0.011719
29165510000,0.999695,-0.015442,0.017334,-0.003540,-0.031250,0.000000,0.027344
29190669000,0.999695,-0.015442,0.017334,-0.003540,-0.031250,0.000000,-0.011719
29204449000,0.999695,-0.015442,0.017334,-0.003540,0.007812,-0.007812,-0.011719
29225085000,0.999695,-0.015442,0.017334,-0.003540,-0.031250,0.000000,-0.003906
29246078000,0.999695,-0.015442,0.017334,-0.003479,0.007812,0.027344,0.035156
29264536000,0.999695,-0.015442,0.017334,-0.003479,-0.031250,-0.007812,0.035156
29283849000,0.999695,-0.015442,0.017334,-0.003479,-0.031250,-0.007812,0.035156
29305188000,0.999695,-0.015442,0.017334,-0.003479,-0.031250,-0.007812,-0.003906
29323700000,0.999695,-0.015442,0.017334,-0.003479,-0.023438,-0.007812,0.035156
29343948000,0.999695,-0.015442,0.017334,-0.003540,0.015625,-0.007812,-0.003906
29371968000,0.999695,-0.015442,0.017334,-0.003479,-0.023438,-0.007812,-0.003906
29383824000,0.999695,-0.015442,0.017334,-0.003540,-0.023438,-0.007812,0.035156
29403990000,0.999695,-0.015442,0.017273,-0.003540,0.015625,-0.007812,0.035156
29433498000,0.999695,-0.015503,0.017334,-0.003540,0.015625,0.027344,-0.003906
29443296000,0.999695,-0.015503,0.017273,-0.003540,-0.023438,-0.007812,-0.003906
29463122000,0.999695,-0.015503,0.017273,-0.003540,0.015625,0.000000,-0.003906
29484196000,0.999695,-0.015503,0.017334,-0.003540,0.015625,0.000000,-0.003906
29512817000,0.999695,-0.015503,0.017334,-0.003540,-0.023438,0.000000,-0.003906
29523503000,0.999695,-0.015564,0.017334,-0.003540,0.015625,0.000000,-0.003906
29543695000,0.999695,-0.015564,0.017334,-0.003540,0.015625,0.000000,-0.003906
29573567000,0.999695,-0.015503,0.017334,-0.003540,0.015625,0.000000,0.027344
29590118000,0.999695,-0.015564,0.017273,-0.003540,-0.023438,0.000000,0.027344
29603559000,0.999695,-0.015564,0.017334,-0.003540,0.015625,0.000000,-0.011719
29623342000,0.999695,-0.015625,0.017334,-0.003540,0.015625,-0.039062,-0.050781
29652545000,0.999695,-0.015625,0.017334,-0.003540,0.015625,0.000000,0.027344
29662812000,0.999695,-0.015625,0.017334,-0.003540,0.015625,0.000000,-0.011719
29683421000,0.999695,-0.015625,0.017334,-0.003540,0.015625,0.000000,-0.011719
29712514000,0.999695,-0.015625,0.017334,-0.003540,0.015625,0.000000,-0.011719
29723019000,0.999695,-0.015625,0.017334,-0.003540,-0.023438,0.000000,-0.011719
29743258000,0.999695,-0.015564,0.017334,-0.003540,0.015625,0.000000,-0.003906
29764310000,0.999695,-0.015625,0.017334,-0.003479,0.015625,0.000000,-0.003906
29789227000,0.999695,-0.015625,0.017334,-0.003479,0.007812,0.000000,0.035156
29802551000,0.999695,-0.015625,0.017334,-0.003540,-0.031250,0.000000,-0.003906
29823205000,0.999695,-0.015625,0.017334,-0.003479,-0.031250,0.000000,-0.003906
29852180000,0.999695,-0.015625,0.017334,-0.003479,-0.031250,0.000000,-0.003906
29868818000,0.999695,-0.015625,0.017334,-0.003540,-0.023438,0.000000,-0.003906
29882631000,0.999695,-0.015686,0.017334,-0.003540,-0.023438,0.000000,-0.003906
29902946000,0.999695,-0.015686,0.017334,-0.003540,-0.023438,0.000000,-0.003906
29932239000,0.999695,-0.015686,0.017273,-0.003540,0.015625,0.000000,0.035156
29942525000,0.999695,-0.015686,0.017273,-0.003540,-0.023438,0.000000,-0.003906
29962722000,0.999695,-0.015625,0.017334,-0.003540,0.015625,0.035156,0.035156
29991740000,0.999695,-0.015625,0.017334,-0.003540,0.015625,0.000000,0.035156
30009421000,0.999695,-0.015625,0.017334,-0.003540,0.015625,0.035156,-0.003906
30022535000,0.999695,-0.015686,0.017334,-0.003540,0.015625,0.000000,-0.003906
30042512000,0.999695,-0.015686,0.017334,-0.003540,0.015625,0.035156,-0.003906
30067829000,0.999695,-0.015686,0.017334,-0.003540,0.015625,-0.007812,-0.003906
30096474000,0.999695,-0.015686,0.017334,-0.003540,-0.023438,-0.007812,-0.003906
30102089000,0.999695,-0.015686,0.017334,-0.003540,-0.023438,-0.007812,-0.003906
30131427000,0.999695,-0.015686,0.017334,-0.003540,-0.023438,-0.007812,0.035156
30141747000,0.999695,-0.015686,0.017334,-0.003540,0.015625,0.027344,0.035156
30162187000,0.999695,-0.015686,0.017334,-0.003540,0.015625,-0.007812,-0.003906
30186724000,0.999695,-0.015686,0.017334,-0.003540,0.015625,-0.007812,-0.003906
30202030000,0.999695,-0.015686,0.017334,-0.003540,-0.023438,0.027344,-0.003906
30222220000,0.999695,-0.015686,0.017334,-0.003540,0.015625,-0.007812,-0.003906
30250923000,0.999695,-0.015686,0.017334,-0.003540,-0.023438,0.027344,-0.003906
30268713000,0.999695,-0.015686,0.017334,-0.003540,0.015625,-0.007812,-0.003906
30281861000,0.999695,-0.015686,0.017334,-0.003540,0.015625,-0.007812,-0.003906
30316710000,0.999695,-0.015686,0.017334,-0.003540,0.015625,0.027344,-0.003906
30330919000,0.999695,-0.015686,0.017334,-0.003540,0.015625,-0.007812,-0.003906
30340988000,0.999695,-0.015686,0.017334,-0.003540,0.015625,-0.007812,-0.003906
30362091000,0.999695,-0.015686,0.017334,-0.003540,-0.023438,-0.007812,-0.003906
30382251000,0.999695,-0.015686,0.017334,-0.003540,-0.023438,-0.007812,0.035156
30402008000,0.999695,-0.015686,0.017334,-0.003540,0.015625,0.027344,-0.003906
30430548000,0.999695,-0.015686,0.017334,-0.003540,0.015625,-0.007812,-0.003906
30447399000,0.999695,-0.015686,0.017334,-0.003540,-0.023438,0.027344,-0.003906
30461233000,0.999695,-0.015686,0.017334,-0.003540,0.015625,-0.007812,-0.003906
30481666000,0.999695,-0.015686,0.017334,-0.003540,0.007812,0.027344,-0.003906
30501497000,0.999695,-0.015686,0.017334,-0.003540,0.007812,0.019531,-0.003906
30530891000,0.999695,-0.015686,0.017334,-0.003540,0.007812,-0.015625,0.035156
30540739000,0.999695,-0.015686,0.017334,-0.003540,0.007812,-0.015625,-0.003906
30561667000,0.999695,-0.015686,0.017334,-0.003540,-0.031250,-0.015625,-0.003906
30581657000,0.999695,-0.015686,0.017334,-0.003540,0.007812,-0.015625,0.035156
30610476000,0.999695,-0.015686,0.017334,-0.003540,0.007812,-0.007812,-0.003906
30620295000,0.999695,-0.015686,0.017334,-0.003540,0.007812,-0.007812,0.035156
30654861000,0.999695,-0.015686,0.017334,-0.003540,0.007812,-0.007812,-0.003906
30661037000,0.999695,-0.015686,0.017334,-0.003540,-0.031250,-0.007812,-0.003906
30690280000,0.999695,-0.015686,0.017334,-0.003540,-0.031250,0.027344,-0.003906
30700371000,0.999695,-0.015686,0.017334,-0.003540,-0.023438,-0.007812,-0.003906
30729862000,0.999695,-0.015686,0.017334,-0.003540,0.015625,-0.007812,0.035156
30749309000,0.999695,-0.015686,0.017334,-0.003540,0.015625,0.027344,-0.003906
30766053000,0.999695,-0.015686,0.017334,-0.003540,-0.023438,0.027344,-0.003906
30781590000,0.999695,-0.015686,0.017334,-0.003540,0.015625,-0.007812,-0.042969
30801677000,0.999695,-0.015686,0.017334,-0.003540,0.015625,-0.007812,-0.003906
30829993000,0.999695,-0.015686,0.017334,-0.003540,-0.023438,-0.007812,-0.003906
30847212000,0.999695,-0.015686,0.017334,-0.003540,-0.023438,-0.007812,-0.003906
30874961000,0.999695,-0.015686,0.017334,-0.003540,-0.023438,-0.007812,-0.003906
30889084000,0.999695,-0.015686,0.017334,-0.003540,-0.023438,-0.007812,-0.003906
30909590000,0.999695,-0.015686,0.017334,-0.003540,-0.023438,-0.007812,0.035156
30920342000,0.999695,-0.015686,0.017334,-0.003540,0.015625,-0.007812,-0.003906
30949493000,0.999695,-0.015686,0.017334,-0.003540,0.015625,-0.007812,-0.003906
30966611000,0.999695,-0.015686,0.017334,-0.003540,-0.023438,-0.007812,-0.003906
30992645000,0.999695,-0.015686,0.017334,-0.003540,0.015625,-0.007812,0.035156
31008906000,0.999695,-0.015686,0.017334,-0.003540,0.015625,-0.007812,0.035156
31029303000,0.999695,-0.015686,0.017334,-0.003540,0.015625,-0.007812,-0.003906
31040336000,0.999695,-0.015686,0.017334,-0.003540,-0.023438,0.027344,-0.003906
31074882000,0.999695,-0.015686,0.017334,-0.003540,0.015625,-0.007812,-0.003906
31089048000,0.999695,-0.015686,0.017334,-0.003540,0.015625,-0.007812,0.035156
31108947000,0.999695,-0.015686,0.017334,-0.003540,0.015625,0.027344,-0.003906
31128622000,0.999695,-0.015686,0.017334,-0.003540,0.015625,-0.007812,0.035156
31154825000,0.999695,-0.015686,0.017334,-0.003540,0.015625,-0.007812,-0.011719
31168566000,0.999695,-0.015686,0.017334,-0.003540,0.015625,-0.007812,-0.011719
31188408000,0.999695,-0.015686,0.017334,-0.003540,0.015625,-0.007812,0.027344
31212255000,0.999695,-0.015686,0.017334,-0.003540,0.015625,-0.007812,-0.011719
31234726000,0.999695,-0.015686,0.017334,-0.003540,0.015625,0.027344,0.027344
31248774000,0.999695,-0.015686,0.017334,-0.003540,0.015625,-0.007812,-0.011719
31267951000,0.999695,-0.015686,0.017334,-0.003540,0.007812,-0.007812,0.027344
31288388000,0.999695,-0.015686,0.017334,-0.003540,-0.031250,-0.007812,0.027344
31300186000,0.999695,-0.015686,0.017334,-0.003540,-0.031250,-0.007812,-0.011719
31328311000,0.999695,-0.015686,0.017334,-0.003540,0.007812,-0.007812,0.027344
31347726000,0.999695,-0.015686,0.017334,-0.003540,0.007812,-0.007812,0.027344
31376206000,0.999695,-0.015686,0.017334,-0.003540,0.007812,-0.007812,0.027344
31387569000,0.999695,-0.015686,0.017334,-0.003540,0.007812,-0.007812,-0.011719
31407634000,0.999695,-0.015686,0.017334,-0.003540,0.007812,0.027344,-0.011719
31430599000,0.999695,-0.015686,0.017334,-0.003540,0.007812,-0.007812,-0.011719
31447986000,0.999695,-0.015686,0.017334,-0.003540,-0.031250,-0.007812,-0.011719
31469044000,0.999695,-0.015686,0.017334,-0.003540,0.007812,-0.007812,0.027344
31487823000,0.999695,-0.015686,0.017334,-0.003540,0.007812,-0.007812,0.027344
31508078000,0.999695,-0.015686,0.017334,-0.003540,0.007812,-0.007812,0.027344
31527109000,0.999695,-0.015686,0.017334,-0.003601,-0.031250,-0.007812,0.027344
31557911000,0.999695,-0.015686,0.017395,-0.003540,0.007812,-0.007812,0.027344
31567082000,0.999695,-0.015686,0.017395,-0.003540,0.007812,-0.007812,-0.011719
31587849000,0.999695,-0.015625,0.017395,-0.003540,0.007812,-0.007812,-0.011719
31612563000,0.999695,-0.015625,0.017395,-0.003601,0.007812,-0.007812,0.027344
31627353000,0.999695,-0.015625,0.017395,-0.003540,-0.031250,-0.007812,-0.011719
31647544000,0.999695,-0.015625,0.017395,-0.003540,-0.031250,-0.007812,-0.011719
31677070000,0.999695,-0.015686,0.017395,-0.003601,0.007812,-0.007812,-0.011719
31686964000,0.999695,-0.015686,0.017395,-0.003601,0.007812,-0.007812,-0.011719
31706862000,0.999695,-0.015686,0.017395,-0.003601,0.007812,-0.007812,0.027344
31726707000,0.999695,-0.015686,0.017395,-0.003601,0.007812,0.027344,-0.011719
31752932000,0.999695,-0.015747,0.017334,-0.003601,-0.031250,0.027344,-0.011719
31766615000,0.999695,-0.015747,0.017334,-0.003601,0.007812,-0.007812,-0.011719
31786537000,0.999695,-0.015747,0.017273,-0.003540,-0.031250,0.027344,-0.050781
31808300000,0.999695,-0.015808,0.017273,-0.003540,0.007812,-0.007812,0.027344
31836613000,0.999695,-0.015808,0.017273,-0.003357,0.542969,-0.085938,-0.050781
31846557000,0.999695,-0.015747,0.017273,-0.003357,1.753906,0.066406,0.062500
31866277000,0.999695,-0.015747,0.017273,-0.003357,1.460938,-0.046875,0.027344
31887359000,0.999695,-0.015747,0.017212,-0.003418,1.578125,-0.085938,-0.128906
31911809000,0.999695,-0.015808,0.017212,-0.003479,1.644531,-0.125000,0.218750
31926285000,0.999695,-0.015503,0.017273,-0.003540,0.218750,-0.046875,0.140625
31946242000,0.999695,-0.015503,0.017395,-0.003601,-0.660156,-0.125000,-0.167969
31966380000,0.999695,-0.015564,0.017578,-0.003662,-0.628906,-0.046875,-0.128906
31996384000,0.999695,-0.015686,0.017639,-0.003662,-0.476562,0.066406,-0.464844
32012301000,0.999695,-0.015625,0.017578,-0.003723,-0.593750,0.027344,0.109375
32028416000,0.999695,-0.015625,0.017456,-0.003723,-0.253906,0.027344,-0.121094
32046833000,0.999695,-0.015625,0.017395,-0.003662,-0.683594,0.152344,0.109375
32076668000,0.999695,-0.015808,0.017395,-0.003723,-0.425781,0.000000,-0.160156
32086020000,0.999695,-0.015747,0.017395,-0.003723,-0.425781,-0.078125,0.187500
32105582000,0.999695,-0.015808,0.017334,-0.003723,1.183594,0.074219,-0.312500
32126054000,0.999695,-0.015869,0.017395,-0.003784,0.832031,-0.039062,0.187500
32145947000,0.999695,-0.016052,0.017334,-0.003845,-0.238281,0.113281,-0.503906
32169860000,0.999695,-0.016052,0.017334,-0.003906,-0.667969,-0.156250,0.109375
32185256000,0.999695,-0.016174,0.017395,-0.003906,-1.015625,0.082031,-0.160156
32205715000,0.999695,-0.016357,0.017334,-0.003906,-0.171875,-0.109375,-0.042969
32227456000,0.999695,-0.015869,0.017090,-0.003967,-0.441406,0.015625,-0.351562
32251886000,0.999695,-0.015930,0.017212,-0.004028,-0.562500,0.007812,0.148438
32265534000,0.999695,-0.015991,0.017151,-0.003967,-0.332031,-0.031250,-0.042969
32285057000,0.999695,-0.016052,0.017273,-0.004028,0.050781,-0.109375,-0.082031
32315419000,0.999695,-0.015991,0.017212,-0.004028,0.128906,0.121094,0.070312
32325540000,0.999695,-0.015869,0.017151,-0.004028,0.281250,0.042969,-0.003906
32345698000,0.999695,-0.015808,0.017212,-0.004089,0.003906,0.042969,-0.003906
32369198000,0.999695,-0.015808,0.017151,-0.004150,-1.144531,0.007812,0.035156
32384765000,0.999695,-0.015808,0.017395,-0.004211,-1.183594,0.074219,0.187500
32404746000,0.999695,-0.015747,0.017334,-0.004272,-0.417969,-0.039062,-0.042969
32425307000,0.999695,-0.015930,0.017212,-0.004578,-0.531250,0.191406,-0.121094
32445668000,0.999695,-0.015808,0.017151,-0.004395,-0.914062,-0.269531,-0.042969
32464613000,0.999695,-0.015808,0.017151,-0.004272,-0.683594,0.113281,0.035156
32485335000,0.999695,-0.015869,0.017151,-0.004272,-0.109375,0.000000,0.035156
32508295000,0.999695,-0.015869,0.017151,-0.004272,-0.109375,0.000000,-0.003906
32524349000,0.999695,-0.015808,0.017151,-0.004333,-0.109375,0.000000,0.035156
32545196000,0.999695,-0.015808,0.017090,-0.004333,-0.101562,0.000000,0.035156
32564955000,0.999695,-0.015808,0.017090,-0.004333,-0.140625,0.035156,-0.003906
32594514000,0.999695,-0.015808,0.017090,-0.004333,-0.101562,0.000000,-0.003906
32610513000,0.999695,-0.015808,0.017029,-0.004333,-0.101562,0.000000,-0.003906
32624325000,0.999695,-0.015747,0.017029,-0.004333,-0.140625,0.000000,-0.003906
32654696000,0.999695,-0.015747,0.017029,-0.004333,-0.101562,0.000000,-0.003906
32664239000,0.999695,-0.015747,0.017029,-0.004333,-0.101562,0.000000,0.035156
32684123000,0.999695,-0.015747,0.017029,-0.004333,-0.101562,0.000000,-0.003906
32704079000,0.999695,-0.015686,0.017029,-0.004333,-0.140625,0.035156,0.035156
32734572000,0.999695,-0.015686,0.017029,-0.004333,-0.093750,0.000000,-0.003906
32751873000,0.999695,-0.015686,0.017029,-0.004333,-0.093750,0.000000,-0.003906
32763818000,0.999695,-0.015686,0.017029,-0.004333,-0.093750,0.000000,0.035156
32784099000,0.999695,-0.015747,0.017029,-0.004333,-0.093750,0.000000,-0.003906
32805391000,0.999695,-0.015747,0.017029,-0.004272,-0.093750,0.000000,-0.003906
32830007000,0.999695,-0.015747,0.017029,-0.004333,0.007812,0.000000,-0.011719
32845991000,0.999695,-0.015747,0.017029,-0.004333,0.007812,0.000000,0.027344
32864510000,0.999695,-0.015747,0.017029,-0.004333,0.007812,0.000000,0.027344
32884540000,0.999695,-0.015747,0.017029,-0.004333,0.007812,0.000000,-0.011719
32907375000,0.999695,-0.015747,0.017029,-0.004333,0.007812,0.000000,-0.011719
32923562000,0.999695,-0.015747,0.017029,-0.004333,-0.031250,0.000000,-0.011719
32943642000,0.999695,-0.015747,0.017029,-0.004333,-0.031250,0.000000,-0.011719
32963709000,0.999695,-0.015747,0.017029,-0.004333,0.007812,0.000000,0.027344
32994071000,0.999695,-0.015747,0.017029,-0.004272,-0.031250,0.000000,-0.011719
33003266000,0.999695,-0.015747,0.017029,-0.004272,0.007812,0.035156,-0.011719
33023566000,0.999695,-0.015747,0.017029,-0.004272,-0.031250,0.000000,-0.011719
33043478000,0.999695,-0.015747,0.017029,-0.004272,0.015625,0.000000,-0.011719
