timestamp_ns,qw,qx,qy,qz,ax,ay,az,t_sec,dist_48e72,dist_83a8d,dist_e05a1
2517695000,0.99939,-0.01355,0.033081,-0.000427,0.035156,-0.003906,0.011719,0.076003,2.81,3.86,1.53
2530688000,0.99939,-0.01355,0.033081,-0.000427,-0.003906,-0.003906,-0.027344,0.088996,,,
2557979000,0.99939,-0.013489,0.033081,-0.000366,-0.003906,-0.003906,-0.027344,0.116287,,,
2567605000,0.99939,-0.013489,0.033081,-0.000427,-0.003906,0.035156,-0.027344,0.125913,,,
2580117000,0.99939,-0.013489,0.033081,-0.000366,-0.003906,-0.003906,-0.027344,0.138425,,,
2587988000,0.99939,-0.013489,0.033081,-0.000427,-0.003906,-0.003906,-0.027344,0.146296,,,
2598507000,0.99939,-0.013489,0.033081,-0.000427,-0.003906,-0.003906,-0.019531,0.156815,,,
2608250000,0.99939,-0.013489,0.033081,-0.000427,-0.003906,-0.003906,-0.019531,0.166558,,,
2623156000,0.99939,-0.013489,0.033142,-0.000427,-0.003906,-0.003906,-0.019531,0.181464,,,
2628242000,0.99939,-0.013489,0.033081,-0.000427,-0.003906,-0.003906,-0.019531,0.18655,,,
2638447000,0.99939,-0.013489,0.033081,-0.000427,0.035156,-0.003906,-0.019531,0.196755,,,
2654210000,0.99939,-0.013489,0.033081,-0.000427,0.035156,-0.003906,0.019531,0.212518,2.82,3.87,1.55
2667125000,0.99939,-0.013489,0.033081,-0.000427,-0.003906,-0.003906,0.019531,0.225433,,,
2682383000,0.99939,-0.013489,0.033081,-0.000427,-0.003906,-0.003906,-0.019531,0.240691,,,
2688367000,0.99939,-0.013489,0.033081,-0.000366,-0.003906,-0.003906,0.019531,0.246675,,,
2711543000,0.99939,-0.013489,0.033081,-0.000366,-0.003906,-0.003906,0.027344,0.269851,,,
2727889000,0.99939,-0.013489,0.033081,-0.000366,-0.003906,-0.003906,-0.011719,0.286197,,,
2747189000,0.99939,-0.013489,0.033142,-0.000366,-0.003906,-0.003906,0.027344,0.305497,,,
2777307000,0.99939,-0.013489,0.033142,-0.000366,-0.003906,-0.003906,-0.011719,0.335615,,,
2793280000,0.99939,-0.013489,0.033142,-0.000366,-0.003906,-0.003906,0.027344,0.351588,,,
2807218000,0.99939,-0.013489,0.033081,-0.000366,-0.003906,-0.003906,-0.011719,0.365526,,,
2827164000,0.99939,-0.013489,0.033081,-0.000366,-0.003906,-0.003906,0.027344,0.385472,,,
2851357000,0.99939,-0.013489,0.033081,-0.000366,-0.003906,-0.003906,0.027344,0.409665,2.82,3.87,1.53
2867089000,0.99939,-0.013489,0.033081,-0.000366,-0.042969,-0.003906,-0.011719,0.425397,,,
2886796000,0.99939,-0.013489,0.033081,-0.000366,-0.003906,-0.003906,-0.011719,0.445104,,,
2907860000,0.99939,-0.01355,0.033081,-0.000366,-0.003906,-0.003906,-0.011719,0.466168,,,
2931620000,0.99939,-0.013489,0.033081,-0.000366,-0.003906,-0.003906,0.027344,0.489928,,,
2946607000,0.99939,-0.013489,0.033081,-0.000366,-0.003906,-0.003906,-0.011719,0.504915,,,
2966445000,0.99939,-0.013489,0.033081,-0.000366,-0.003906,-0.003906,0.027344,0.524753,,,
2996599000,0.99939,-0.01355,0.033081,-0.000366,-0.003906,-0.003906,0.027344,0.554907,,,
3012861000,0.99939,-0.013489,0.033142,-0.000366,-0.003906,-0.003906,-0.011719,0.571169,,,
3026725000,0.99939,-0.013489,0.033142,-0.000427,0.035156,-0.003906,0.027344,0.585033,,,
3048359000,0.99939,-0.01355,0.033081,-0.000366,-0.003906,-0.003906,-0.011719,0.606667,,,
3067892000,0.99939,-0.01355,0.033081,-0.000427,-0.003906,-0.003906,-0.011719,0.6262,2.83,3.88,1.54
3093624000,0.99939,-0.01355,0.033081,-0.000427,-0.003906,-0.003906,0.027344,0.651932,,,
3106268000,0.99939,-0.01355,0.033081,-0.000427,-0.003906,-0.003906,-0.011719,0.664576,,,
3126404000,0.99939,-0.01355,0.033081,-0.000427,-0.003906,-0.003906,0.027344,0.684712,,,
3153174000,0.99939,-0.01355,0.033081,-0.000427,-0.003906,-0.003906,-0.011719,0.711482,,,
3166304000,0.99939,-0.01355,0.033081,-0.000427,-0.003906,-0.003906,0.027344,0.724612,,,
3186661000,0.99939,-0.013611,0.033081,-0.000427,-0.003906,-0.003906,0.027344,0.744969,,,
3209132000,0.99939,-0.01355,0.033081,-0.000427,-0.003906,-0.003906,0.027344,0.76744,,,
3225902000,0.99939,-0.013611,0.033081,-0.000427,-0.003906,0.035156,0.027344,0.78421,,,
3245927000,0.99939,-0.013611,0.033081,-0.000427,-0.003906,-0.003906,0.027344,0.804235,,,
3265756000,0.99939,-0.013611,0.033081,-0.000427,-0.003906,-0.003906,-0.011719,0.824064,2.82,3.87,1.57
3295968000,0.99939,-0.013611,0.033081,-0.000427,-0.003906,-0.003906,-0.011719,0.854276,,,
3305633000,0.99939,-0.013611,0.033081,-0.000427,0.035156,-0.003906,-0.011719,0.863941,,,
3325985000,0.99939,-0.01355,0.033081,-0.000427,-0.003906,-0.003906,0.027344,0.884293,,,
3355541000,0.99939,-0.013611,0.03302,-0.000427,-0.003906,-0.003906,-0.050781,0.913849,,,
3365917000,0.99939,-0.013611,0.03302,-0.000427,-0.003906,-0.003906,0.027344,0.924225,,,
3385304000,0.99939,-0.013611,0.03302,-0.000427,-0.003906,-0.003906,0.027344,0.943612,,,
3415979000,0.99939,-0.013611,0.033081,-0.000427,-0.003906,-0.003906,-0.011719,0.974287,,,
3426610000,0.99939,-0.013611,0.033081,-0.000427,-0.003906,-0.003906,-0.011719,0.984918,,,
3445505000,0.99939,-0.013611,0.033081,-0.000427,-0.003906,-0.003906,-0.011719,1.003813,,,
3466375000,0.99939,-0.013611,0.033081,-0.000427,-0.003906,-0.003906,0.027344,1.024683,2.81,3.87,1.49
3489384000,0.99939,-0.013611,0.033081,-0.000427,-0.003906,-0.003906,0.027344,1.047692,,,
3504925000,0.99939,-0.013611,0.033081,-0.000427,-0.003906,-0.003906,0.027344,1.063233,,,
3524752000,0.99939,-0.013611,0.033081,-0.000427,-0.003906,-0.003906,-0.011719,1.08306,,,
3545708000,0.99939,-0.013611,0.033081,-0.000427,-0.003906,-0.003906,0.027344,1.104016,,,
3565050000,0.99939,-0.013611,0.033081,-0.000427,-0.003906,-0.039062,0.027344,1.123358,,,
3585947000,0.99939,-0.013611,0.033081,-0.000427,-0.003906,-0.003906,0.027344,1.144255,,,
3608971000,0.99939,-0.013611,0.033081,-0.000427,-0.003906,-0.003906,-0.011719,1.167279,,,
3624578000,0.99939,-0.013611,0.033081,-0.000427,-0.003906,-0.003906,0.019531,1.182886,,,
3645047000,0.99939,-0.013611,0.033081,-0.000427,-0.003906,-0.003906,-0.019531,1.203355,,,
3674596000,0.99939,-0.013611,0.033081,-0.000427,-0.003906,-0.003906,-0.019531,1.232904,2.83,3.89,1.54
3687227000,0.99939,-0.013611,0.033081,-0.000427,-0.003906,-0.003906,0.019531,1.245535,,,
3704550000,0.99939,-0.013611,0.033081,-0.000427,-0.003906,-0.003906,0.019531,1.262858,,,
3730720000,0.99939,-0.013611,0.033081,-0.000427,-0.003906,0.035156,0.019531,1.289028,,,
3744320000,0.99939,-0.013611,0.033081,-0.000427,-0.003906,-0.003906,0.019531,1.302628,,,
3765189000,0.99939,-0.013611,0.033081,-0.000427,-0.042969,-0.003906,-0.019531,1.323497,,,
3794173000,0.99939,-0.013611,0.033081,-0.000427,0.035156,-0.003906,0.019531,1.352481,,,
3804320000,0.99939,-0.013611,0.033081,-0.000427,-0.003906,-0.003906,0.019531,1.362628,,,
3823913000,0.99939,-0.013611,0.033081,-0.000427,-0.042969,-0.003906,-0.019531,1.382221,,,
3844220000,0.99939,-0.013611,0.033081,-0.000427,-0.003906,-0.003906,-0.019531,1.402528,,,
3874086000,0.99939,-0.013611,0.033081,-0.000427,-0.003906,-0.003906,0.019531,1.432394,2.83,3.91,1.54
3884498000,0.99939,-0.013611,0.033081,-0.000427,-0.003906,-0.003906,-0.019531,1.442806,,,
3904303000,0.99939,-0.013611,0.033081,-0.000427,-0.003906,-0.003906,0.019531,1.462611,,,
3924954000,0.99939,-0.013611,0.033081,-0.000427,-0.003906,-0.003906,0.019531,1.483262,,,
3945629000,0.99939,-0.013611,0.033081,-0.000427,-0.003906,-0.003906,0.019531,1.503937,,,
3973725000,0.99939,-0.013611,0.033081,-0.000427,-0.003906,-0.003906,-0.019531,1.532033,,,
3983508000,0.99939,-0.013611,0.033081,-0.000427,-0.003906,-0.003906,-0.019531,1.541816,,,
4004143000,0.99939,-0.013611,0.033081,-0.000427,-0.003906,-0.003906,-0.019531,1.562451,,,
4024878000,0.99939,-0.013611,0.033081,-0.000427,-0.003906,-0.003906,0.019531,1.583186,,,
4043602000,0.99939,-0.013611,0.033081,-0.000427,-0.003906,-0.003906,0.019531,1.60191,,,
4063225000,0.99939,-0.013611,0.033081,-0.000427,-0.003906,-0.003906,-0.011719,1.621533,2.83,3.92,1.52
4083265000,0.99939,-0.013611,0.033081,-0.000427,-0.003906,-0.003906,-0.011719,1.641573,,,
4110159000,0.99939,-0.013611,0.033081,-0.000427,-0.042969,-0.003906,0.027344,1.668467,,,
4123168000,0.99939,-0.013611,0.033081,-0.000427,-0.003906,-0.003906,0.027344,1.681476,,,
4143464000,0.99939,-0.013611,0.033081,-0.000427,-0.003906,-0.003906,0.027344,1.701772,,,
4164167000,0.99939,-0.013611,0.033081,-0.000427,-0.003906,-0.003906,0.027344,1.722475,,,
4193965000,0.99939,-0.013611,0.033081,-0.000427,-0.003906,-0.003906,-0.011719,1.752273,,,
4204091000,0.99939,-0.013611,0.033081,-0.000427,-0.003906,-0.003906,0.027344,1.762399,,,
4223045000,0.99939,-0.013611,0.033081,-0.000427,-0.003906,-0.003906,-0.011719,1.781353,,,
4243260000,0.99939,-0.013611,0.033081,-0.000427,-0.003906,-0.003906,0.019531,1.801568,,,
4268592000,0.99939,-0.013611,0.033081,-0.000427,-0.003906,-0.003906,0.019531,1.8269,2.84,3.91,1.53
4282878000,0.99939,-0.013611,0.033081,-0.000427,-0.003906,-0.003906,0.019531,1.841186,,,
4302681000,0.99939,-0.013611,0.033081,-0.000427,-0.003906,-0.003906,0.019531,1.860989,,,
4333307000,0.99939,-0.013611,0.033081,-0.000427,0.035156,-0.003906,0.019531,1.891615,,,
4342889000,0.99939,-0.013611,0.033081,-0.000427,-0.003906,-0.003906,0.019531,1.901197,,,
4362881000,0.99939,-0.013611,0.033081,-0.000427,-0.003906,-0.003906,0.019531,1.921189,,,
4392778000,0.99939,-0.013611,0.033081,-0.000427,-0.003906,-0.003906,-0.019531,1.951086,,,
4409144000,0.99939,-0.013611,0.033081,-0.000427,-0.003906,-0.003906,-0.019531,1.967452,,,
4422853000,0.99939,-0.013611,0.033081,-0.000427,-0.003906,-0.003906,0.019531,1.981161,,,
4443046000,0.99939,-0.013611,0.033081,-0.000427,-0.003906,-0.003906,-0.019531,2.001354,,,
4472289000,0.99939,-0.013611,0.033081,-0.000427,-0.003906,-0.003906,0.019531,2.030597,2.82,3.9,1.49
4482868000,0.99939,-0.013611,0.033081,-0.000427,-0.003906,-0.003906,0.019531,2.041176,,,
4502462000,0.99939,-0.013611,0.033081,-0.000427,-0.003906,-0.003906,-0.019531,2.06077,,,
4523596000,0.99939,-0.013611,0.033081,-0.000427,-0.042969,-0.003906,0.019531,2.081904,,,
4549146000,0.99939,-0.013611,0.033081,-0.000427,0.035156,-0.003906,0.019531,2.107454,,,
4562359000,0.99939,-0.013611,0.033081,-0.000427,-0.003906,-0.003906,0.019531,2.120667,,,
4591073000,0.99939,-0.013611,0.033081,-0.000427,-0.003906,-0.003906,0.019531,2.149381,,,
4600825000,0.99939,-0.013611,0.033081,-0.000427,-0.003906,-0.003906,0.019531,2.159133,,,
4626400000,0.99939,-0.013611,0.033081,-0.000427,-0.003906,-0.003906,-0.019531,2.184708,,,
4640614000,0.99939,-0.013611,0.033081,-0.000427,-0.003906,-0.003906,-0.019531,2.198922,,,
4661621000,0.99939,-0.013611,0.033081,-0.000427,-0.003906,-0.003906,0.019531,2.219929,2.83,3.9,1.56
4682159000,0.99939,-0.013611,0.033081,-0.000427,-0.003906,-0.003906,0.019531,2.240467,,,
4708723000,0.99939,-0.013611,0.033081,-0.000427,-0.003906,-0.003906,0.019531,2.267031,,,
4722700000,0.99939,-0.013611,0.033081,-0.000427,-0.003906,-0.003906,0.019531,2.281008,,,
4742557000,0.99939,-0.013611,0.033081,-0.000427,-0.003906,-0.003906,-0.019531,2.300865,,,
4771271000,0.99939,-0.013611,0.033081,-0.000427,-0.003906,-0.039062,-0.019531,2.329579,,,
4781819000,0.99939,-0.013611,0.033081,-0.000427,-0.003906,-0.003906,-0.019531,2.340127,,,
4802515000,0.99939,-0.013611,0.033081,-0.000427,-0.003906,-0.003906,-0.019531,2.360823,,,
4831150000,0.99939,-0.013611,0.033081,-0.000427,-0.003906,-0.003906,0.019531,2.389458,,,
4841506000,0.99939,-0.013611,0.033081,-0.000427,0.035156,-0.003906,0.019531,2.399814,,,
4862313000,0.99939,-0.013611,0.033081,-0.000427,-0.003906,-0.003906,0.019531,2.420621,2.84,3.89,1.56
4882172000,0.99939,-0.013611,0.033081,-0.000427,-0.003906,-0.003906,-0.019531,2.44048,,,
4910950000,0.99939,-0.013611,0.033081,-0.000427,-0.003906,0.035156,0.132812,2.469258,,,
4921312000,0.99939,-0.013611,0.033081,-0.000427,-0.003906,-0.003906,-0.058594,2.47962,,,
4942035000,0.99939,-0.013611,0.033081,-0.000427,-0.042969,-0.003906,-0.019531,2.500343,,,
4962102000,0.99939,-0.013611,0.033081,-0.000427,-0.003906,-0.003906,0.019531,2.52041,,,
4982382000,0.99939,-0.013611,0.033081,-0.000427,0.035156,-0.003906,0.058594,2.54069,,,
5002713000,0.99939,-0.013611,0.033081,-0.000427,-0.003906,-0.003906,-0.019531,2.561021,,,
5027685000,0.99939,-0.013611,0.033081,-0.000427,-0.003906,-0.003906,0.019531,2.585993,,,
5041513000,0.99939,-0.013611,0.033081,-0.000427,0.035156,-0.003906,-0.019531,2.599821,,,
5061693000,0.99939,-0.013611,0.033081,-0.000427,-0.003906,-0.003906,-0.019531,2.620001,2.81,3.91,1.54
5091078000,0.99939,-0.013611,0.033081,-0.000427,-0.003906,-0.003906,-0.058594,2.649386,,,
5100572000,0.99939,-0.013611,0.033081,-0.000427,-0.003906,-0.003906,0.058594,2.65888,,,
5133135000,0.99939,-0.013611,0.033081,-0.000427,-0.003906,-0.003906,0.019531,2.691443,,,
5150816000,0.99939,-0.013611,0.033081,-0.000427,-0.003906,-0.039062,-0.019531,2.709124,,,
5167036000,0.99939,-0.013611,0.033081,-0.000427,-0.003906,-0.003906,0.019531,2.725344,,,
5181188000,0.99939,-0.013611,0.033081,-0.000427,-0.003906,-0.003906,0.019531,2.739496,,,
5201682000,0.99939,-0.013611,0.033081,-0.000427,-0.003906,-0.003906,0.019531,2.75999,,,
5231346000,0.99939,-0.013611,0.033081,-0.000427,-0.003906,-0.003906,0.019531,2.789654,,,
5250159000,0.99939,-0.013611,0.033081,-0.000427,-0.003906,-0.003906,0.019531,2.808467,,,
5260320000,0.99939,-0.013611,0.033081,-0.000427,-0.003906,-0.003906,0.019531,2.818628,2.8,3.89,1.56
5289952000,0.99939,-0.013611,0.033081,-0.000427,-0.003906,-0.003906,0.019531,2.84826,,,
5312369000,0.99939,-0.013611,0.033081,-0.000427,-0.003906,-0.003906,-0.019531,2.870677,,,
5320298000,0.99939,-0.013611,0.033081,-0.000427,-0.003906,-0.003906,0.019531,2.878606,,,
5341660000,0.99939,-0.013611,0.033081,-0.000427,-0.003906,-0.003906,-0.019531,2.899968,,,
5370387000,0.99939,-0.013611,0.033081,-0.000427,-0.003906,-0.003906,-0.019531,2.928695,,,
5380332000,0.99939,-0.013611,0.033081,-0.000427,-0.003906,-0.003906,0.019531,2.93864,,,
5404938000,0.99939,-0.013611,0.033081,-0.000427,-0.003906,-0.003906,0.019531,2.963246,,,
5421670000,0.99939,-0.013611,0.033081,-0.000427,0.035156,0.035156,-0.019531,2.979978,,,
5449583000,0.99939,-0.013611,0.033081,-0.000427,-0.003906,-0.003906,-0.019531,3.007891,,,
5466548000,0.99939,-0.013611,0.033081,-0.000427,-0.003906,0.035156,-0.019531,3.024856,2.82,3.87,1.52
5496458000,0.99939,-0.013611,0.033081,-0.000427,-0.003906,-0.003906,0.019531,3.054766,,,
5509886000,0.99939,-0.013611,0.033081,-0.000427,-0.003906,-0.003906,-0.019531,3.068194,,,
5529559000,0.99939,-0.013611,0.033081,-0.000427,-0.003906,-0.003906,0.019531,3.087867,,,
5545894000,0.99939,-0.013611,0.033081,-0.000427,-0.042969,0.027344,0.019531,3.104202,,,
5575294000,0.99939,-0.013611,0.033081,-0.000427,-0.003906,0.027344,0.019531,3.133602,,,
5589400000,0.99939,-0.013611,0.033081,-0.000427,-0.003906,0.027344,0.019531,3.147708,,,
5609830000,0.99939,-0.013611,0.033081,-0.000427,-0.003906,-0.011719,0.019531,3.168138,,,
5629636000,0.99939,-0.013611,0.033081,-0.000427,-0.003906,-0.011719,0.019531,3.187944,,,
5649567000,0.99939,-0.013611,0.033081,-0.000427,-0.003906,-0.011719,-0.027344,3.207875,,,
5669483000,0.99939,-0.013611,0.033081,-0.000427,-0.003906,-0.011719,0.011719,3.227791,2.82,3.88,1.53
5692665000,0.99939,-0.013611,0.033081,-0.000427,0.035156,-0.011719,-0.027344,3.250973,,,
5717985000,0.99939,-0.013611,0.033081,-0.000427,-0.003906,-0.011719,-0.027344,3.276293,,,
5729151000,0.99939,-0.013611,0.033081,-0.000427,-0.003906,-0.011719,0.019531,3.287459,,,
5748912000,0.99939,-0.013611,0.033081,-0.000427,-0.003906,-0.011719,-0.019531,3.30722,,,
5760394000,0.99939,-0.013611,0.033081,-0.000427,-0.003906,-0.011719,0.019531,3.318702,,,
5788798000,0.99939,-0.013611,0.033081,-0.000427,-0.003906,-0.011719,-0.019531,3.347106,,,
5808925000,0.99939,-0.013611,0.033081,-0.000427,-0.003906,-0.011719,0.019531,3.367233,,,
5829542000,0.99939,-0.013611,0.033081,-0.000427,-0.003906,0.027344,0.019531,3.38785,,,
5848548000,0.99939,-0.013611,0.033081,-0.000427,-0.003906,-0.011719,0.019531,3.406856,,,
5869235000,0.99939,-0.013611,0.033081,-0.000427,0.035156,-0.011719,0.019531,3.427543,2.83,3.91,1.56
5888259000,0.99939,-0.013611,0.033081,-0.000427,-0.003906,-0.011719,-0.019531,3.446567,,,
5909733000,0.99939,-0.013611,0.033081,-0.000427,-0.003906,-0.011719,-0.019531,3.468041,,,
5934378000,0.99939,-0.013611,0.033081,-0.000427,-0.003906,-0.011719,-0.019531,3.492686,,,
5949170000,0.99939,-0.013611,0.033081,-0.000427,-0.003906,-0.003906,0.019531,3.507478,,,
5968176000,0.99939,-0.013611,0.033081,-0.000427,-0.003906,-0.003906,-0.019531,3.526484,,,
5988600000,0.99939,-0.013611,0.033081,-0.000427,-0.003906,-0.003906,-0.019531,3.546908,,,
6016550000,0.99939,-0.013611,0.033081,-0.000427,-0.003906,-0.003906,-0.019531,3.574858,,,
6028074000,0.99939,-0.013611,0.033081,-0.000427,-0.003906,-0.003906,0.019531,3.586382,,,
6048667000,0.99939,-0.013611,0.033081,-0.000427,-0.003906,-0.003906,0.019531,3.606975,,,
6074095000,0.99939,-0.013611,0.033081,-0.000427,-0.003906,-0.003906,0.019531,3.632403,2.82,3.92,1.53
6088255000,0.99939,-0.013611,0.033081,-0.000427,-0.042969,0.035156,0.019531,3.646563,,,
6107562000,0.99939,-0.013611,0.033081,-0.000427,-0.003906,-0.003906,0.019531,3.66587,,,
6133296000,0.99939,-0.013611,0.033081,-0.000427,-0.003906,-0.003906,0.019531,3.691604,,,
6147926000,0.99939,-0.013611,0.033081,-0.000427,-0.003906,-0.003906,0.019531,3.706234,,,
6168706000,0.99939,-0.013611,0.033081,-0.000427,-0.003906,0.027344,0.019531,3.727014,,,
6189170000,0.99939,-0.013611,0.033081,-0.000427,-0.003906,-0.011719,-0.019531,3.747478,,,
6208191000,0.99939,-0.013611,0.033081,-0.000427,-0.003906,0.027344,0.019531,3.766499,,,
6237311000,0.99939,-0.013611,0.033081,-0.000427,-0.003906,-0.011719,-0.019531,3.795619,,,
6247820000,0.99939,-0.013611,0.033081,-0.000427,-0.003906,-0.011719,-0.019531,3.806128,,,
6267649000,0.99939,-0.013611,0.033081,-0.000427,-0.003906,-0.011719,-0.019531,3.825957,2.83,3.95,1.54
6294073000,0.99939,-0.013611,0.033081,-0.000427,-0.003906,-0.011719,-0.019531,3.852381,,,
6307227000,0.99939,-0.013611,0.033081,-0.000427,-0.003906,0.027344,0.019531,3.865535,,,
6337413000,0.99939,-0.013611,0.033081,-0.000427,-0.003906,-0.011719,-0.019531,3.895721,,,
6353407000,0.99939,-0.013611,0.033081,-0.000427,-0.003906,-0.011719,0.019531,3.911715,,,
6366957000,0.99939,-0.013611,0.033081,-0.000427,-0.003906,-0.011719,-0.019531,3.925265,,,
6387719000,0.99939,-0.013611,0.033081,-0.000427,-0.003906,-0.011719,-0.019531,3.946027,,,
6412627000,0.99939,-0.013611,0.033081,-0.000427,-0.003906,-0.011719,0.019531,3.970935,,,
6427735000,0.99939,-0.013611,0.033081,-0.000427,0.035156,-0.011719,0.019531,3.986043,,,
6446776000,0.99939,-0.013611,0.033081,-0.000427,-0.003906,-0.046875,-0.019531,4.005084,,,
6467684000,0.99939,-0.013611,0.033081,-0.000427,-0.003906,-0.011719,0.019531,4.025992,2.82,3.91,1.55
6491609000,0.99939,-0.013611,0.033081,-0.000427,-0.003906,-0.011719,-0.019531,4.049917,,,
6507227000,0.99939,-0.013611,0.033081,-0.000427,0.035156,-0.011719,0.019531,4.065535,,,
6528778000,0.99939,-0.013611,0.033081,-0.000427,-0.003906,0.027344,-0.019531,4.087086,,,
6553220000,0.99939,-0.013611,0.033081,-0.000427,-0.003906,0.027344,0.019531,4.111528,,,
6566925000,0.99939,-0.013611,0.033081,-0.000427,-0.003906,-0.011719,0.019531,4.125233,,,
6587250000,0.99939,-0.013611,0.033081,-0.000427,-0.003906,-0.011719,0.019531,4.145558,,,
6610254000,0.99939,-0.013611,0.033081,-0.000427,-0.003906,-0.046875,-0.019531,4.168562,,,
6626694000,0.99939,-0.013611,0.033081,-0.000427,-0.003906,-0.011719,0.019531,4.185002,,,
6646692000,0.99939,-0.013611,0.033081,-0.000427,-0.003906,-0.003906,0.019531,4.205,,,
6667306000,0.99939,-0.013611,0.033081,-0.000427,-0.003906,-0.003906,0.019531,4.225614,2.82,3.91,1.53
6691722000,0.99939,-0.013611,0.033081,-0.000427,-0.003906,0.035156,0.011719,4.25003,,,
6705958000,0.99939,-0.013611,0.033081,-0.000427,-0.003906,0.035156,-0.066406,4.264266,,,
6726050000,0.99939,-0.013611,0.033081,-0.000427,-0.042969,-0.003906,0.019531,4.284358,,,
6745935000,0.99939,-0.013611,0.033081,-0.000427,-0.003906,-0.039062,0.019531,4.304243,,,
6766250000,0.99939,-0.013611,0.033081,-0.000427,-0.003906,-0.003906,0.019531,4.324558,,,
6786224000,0.99939,-0.013611,0.033081,-0.000427,-0.003906,-0.003906,-0.019531,4.344532,,,
6809576000,0.99939,-0.013611,0.033081,-0.000427,-0.003906,-0.003906,0.019531,4.367884,,,
6825888000,0.99939,-0.013611,0.033081,-0.000427,-0.003906,0.035156,-0.019531,4.384196,,,
6845893000,0.99939,-0.013611,0.033081,-0.000427,-0.003906,-0.003906,-0.019531,4.404201,,,
6876261000,0.99939,-0.013611,0.033081,-0.000427,-0.003906,0.027344,0.019531,4.434569,2.83,3.95,1.52
6885847000,0.99939,-0.013611,0.033081,-0.000427,0.035156,-0.011719,0.019531,4.444155,,,
6905637000,0.99939,-0.013611,0.033081,-0.000427,-0.003906,0.027344,-0.019531,4.463945,,,
6925962000,0.99939,-0.013611,0.033081,-0.000427,-0.003906,-0.011719,0.019531,4.48427,,,
6950229000,0.99939,-0.013611,0.033081,-0.000427,-0.003906,0.027344,-0.058594,4.508537,,,
6965499000,0.99939,-0.013611,0.033081,-0.000427,-0.003906,0.027344,-0.019531,4.523807,,,
6985340000,0.99939,-0.013611,0.033081,-0.000427,-0.003906,-0.011719,-0.019531,4.543648,,,
7015386000,0.99939,-0.013611,0.033081,-0.000427,-0.003906,-0.011719,0.019531,4.573694,,,
7025191000,0.99939,-0.013611,0.033081,-0.000427,-0.003906,-0.011719,-0.019531,4.583499,,,
7045129000,0.99939,-0.013611,0.033081,-0.000427,-0.003906,-0.011719,0.019531,4.603437,,,
7067580000,0.99939,-0.013611,0.033081,-0.000427,0.035156,0.027344,0.019531,4.625888,2.81,3.91,1.53
7085063000,0.99939,-0.013611,0.033081,-0.000427,-0.003906,-0.011719,-0.058594,4.643371,,,
7105941000,0.99939,-0.013611,0.033081,-0.000427,-0.003906,-0.011719,0.019531,4.664249,,,
7126181000,0.99939,-0.013611,0.033081,-0.000427,-0.003906,0.027344,0.019531,4.684489,,,
7151639000,0.99939,-0.013611,0.033081,-0.000427,-0.003906,-0.011719,0.019531,4.709947,,,
7165137000,0.99939,-0.013611,0.033081,-0.000427,-0.003906,0.027344,0.019531,4.723445,,,
7185386000,0.99939,-0.013611,0.033081,-0.000427,-0.003906,-0.011719,-0.019531,4.743694,,,
7204606000,0.99939,-0.013611,0.033081,-0.000427,0.035156,-0.011719,0.019531,4.762914,,,
7225001000,0.99939,-0.013611,0.033081,-0.000427,0.035156,-0.011719,0.058594,4.783309,,,
7246224000,0.99939,-0.013611,0.033081,-0.000427,-0.003906,-0.011719,0.019531,4.804532,,,
7264737000,0.99939,-0.013611,0.033081,-0.000427,-0.003906,-0.011719,0.019531,4.823045,2.83,3.88,1.54
7284714000,0.99939,-0.013611,0.033081,-0.000427,-0.003906,-0.011719,-0.019531,4.843022,,,
7315974000,0.99939,-0.013611,0.033081,-0.000427,-0.003906,-0.011719,0.011719,4.874282,,,
7330356000,0.99939,-0.013611,0.033081,-0.000427,-0.003906,-0.011719,-0.027344,4.888664,,,
7344597000,0.99939,-0.013611,0.033081,-0.000427,-0.003906,-0.011719,0.011719,4.902905,,,
7364374000,0.999329,-0.013733,0.033081,0.000977,0.832031,-0.691406,-0.105469,4.922682,,,
7385657000,0.999329,-0.014709,0.033386,0.003479,0.546875,0.183594,0.277344,4.943965,,,
7405121000,0.999268,-0.015564,0.033691,0.00592,-0.019531,0.433594,0.242188,4.963429,,,
7424411000,0.999268,-0.015991,0.033997,0.00769,0.441406,0.144531,-0.257812,4.982719,,,
7444599000,0.999268,-0.016541,0.033691,0.007874,0.210938,1.417969,-0.144531,5.002907,,,
7464761000,0.999268,-0.016357,0.033447,0.007996,1.007812,-0.183594,0.125,5.023069,2.81,3.9,1.53
7484418000,0.999329,-0.015503,0.03241,0.008057,0.878906,0.199219,0.050781,5.042726,,,
7504977000,0.99939,-0.015564,0.030518,0.007935,-0.304688,1.867188,1.8125,5.063285,,,
7533918000,0.99939,-0.015747,0.030701,0.008118,0.648438,-0.285156,-1.183594,5.092226,,,
7543975000,0.99939,-0.015686,0.030518,0.007935,0.058594,0.949219,0.84375,5.102283,,,
7563992000,0.99939,-0.015808,0.030518,0.008057,-0.027344,-0.238281,0.539062,5.1223,,,
7584618000,0.99939,-0.01593,0.030273,0.007935,-0.105469,0.066406,-0.417969,5.142926,,,
7610197000,0.99939,-0.015747,0.03009,0.007568,-0.378906,0.066406,0.386719,5.168505,,,
7624278000,0.99939,-0.015381,0.029907,0.007263,-0.273438,0.066406,0.042969,5.182586,,,
7643867000,0.999451,-0.015259,0.029541,0.006714,-0.65625,0.03125,0.15625,5.202175,,,
7673661000,0.999451,-0.01532,0.028931,0.005737,-0.058594,-0.199219,-0.003906,5.231969,2.86,3.88,1.58
7683617000,0.999451,-0.015381,0.028687,0.005432,0.046875,-0.125,0.070312,5.241925,,,
7703848000,0.999451,-0.015381,0.028442,0.005066,-0.449219,0.03125,0.070312,5.262156,,,
7723428000,0.999451,-0.015625,0.028137,0.004822,-0.191406,-0.046875,-0.089844,5.281736,,,
7743898000,0.999451,-0.015503,0.028076,0.004883,0.039062,-0.160156,0.179688,5.302206,,,
7773125000,0.999451,-0.015747,0.02771,0.004639,-0.042969,0.066406,0.140625,5.331433,,,
7783602000,0.999512,-0.015808,0.027588,0.004395,-0.011719,0.144531,-0.167969,5.34191,,,
7802969000,0.999512,-0.015747,0.027405,0.004089,-0.625,-0.152344,-0.050781,5.361277,,,
7823548000,0.999512,-0.015686,0.027344,0.003845,-0.703125,0.222656,-0.128906,5.381856,,,
7853767000,0.999512,-0.015564,0.027283,0.003784,-0.175781,0.066406,0.179688,5.412075,,,
7863460000,0.999512,-0.015564,0.027222,0.003845,-0.175781,-0.039062,-0.175781,5.421768,2.87,3.88,1.57
7883994000,0.999512,-0.015625,0.027222,0.003845,-0.480469,0.039062,-0.097656,5.442302,,,
7910137000,0.999512,-0.015686,0.027161,0.003906,-0.519531,0.0,-0.058594,5.468445,,,
7922801000,0.999512,-0.015747,0.027161,0.003967,-0.289062,0.0,-0.175781,5.481109,,,
7942626000,0.999512,-0.015686,0.0271,0.003906,-0.175781,0.113281,0.054688,5.500934,,,
7972927000,0.999512,-0.015747,0.026978,0.003906,-0.097656,0.0,0.054688,5.531235,,,
7992504000,0.999512,-0.015808,0.026917,0.003845,-0.144531,0.074219,0.019531,5.550812,,,
8002987000,0.999512,-0.015808,0.026917,0.003845,0.085938,0.082031,0.054688,5.561295,,,
8022704000,0.999512,-0.015808,0.026855,0.003906,0.125,0.121094,0.09375,5.581012,,,
8043337000,0.999512,-0.015869,0.026733,0.003906,0.621094,0.160156,0.054688,5.601645,,,
8064935000,0.999512,-0.016052,0.026611,0.003845,0.277344,0.007812,-0.058594,5.623243,2.87,3.89,1.59
8083121000,0.999512,-0.015991,0.026306,0.003601,-0.34375,0.046875,-0.058594,5.641429,,,
8112401000,0.999512,-0.016052,0.025818,0.002747,-0.3125,0.046875,-0.097656,5.670709,,,
8123198000,0.999573,-0.01593,0.025574,0.002502,-0.199219,0.273438,-0.058594,5.681506,,,
8142543000,0.999573,-0.01593,0.025146,0.001831,-0.589844,-0.039062,-0.210938,5.700851,,,
8163177000,0.999573,-0.01593,0.025024,0.001587,-0.78125,0.074219,0.09375,5.721485,,,
8192012000,0.999573,-0.01593,0.025024,0.001526,-0.511719,0.007812,-0.25,5.75032,,,
8202317000,0.999573,-0.01593,0.025024,0.001526,-0.015625,0.082031,0.054688,5.760625,,,
8222287000,0.999573,-0.01593,0.025024,0.001526,0.0625,0.046875,-0.019531,5.780595,,,
8242375000,0.999573,-0.01593,0.025024,0.001648,0.175781,0.046875,-0.027344,5.800683,,,
8282453000,0.999573,-0.01593,0.024963,0.001709,-0.398438,0.121094,0.011719,5.840761,2.88,3.88,1.58
8291615000,0.999573,-0.01593,0.024963,0.001709,-0.050781,0.046875,0.011719,5.849923,,,
8311864000,0.999573,-0.01593,0.025024,0.00177,-0.050781,0.046875,-0.027344,5.870172,,,
8326857000,0.999573,-0.01593,0.025024,0.001709,-0.089844,0.082031,-0.027344,5.885165,,,
8342413000,0.999573,-0.01593,0.025024,0.001709,-0.089844,0.046875,0.011719,5.900721,,,
8362525000,0.999573,-0.01593,0.025024,0.00177,-0.042969,0.046875,-0.027344,5.920833,,,
8382597000,0.999573,-0.015991,0.025024,0.001709,-0.042969,0.046875,-0.027344,5.940905,,,
8402143000,0.999573,-0.01593,0.025024,0.001709,-0.042969,0.046875,-0.027344,5.960451,,,
8422466000,0.999573,-0.01593,0.025024,0.001709,-0.042969,0.046875,-0.066406,5.980774,,,
8451939000,0.999573,-0.01593,0.024963,0.001709,-0.042969,0.046875,0.011719,6.010247,,,
8461802000,0.999573,-0.015991,0.024963,0.001709,-0.042969,0.046875,-0.027344,6.02011,,,
8482213000,0.999573,-0.015991,0.024963,0.001709,-0.042969,0.046875,-0.027344,6.040521,2.85,3.92,1.55
8510985000,0.999573,-0.015991,0.024963,0.001709,-0.082031,0.046875,-0.066406,6.069293,,,
8521436000,0.999573,-0.015991,0.024963,0.001709,-0.042969,0.082031,-0.027344,6.079744,,,
8542158000,0.999573,-0.015991,0.025024,0.001709,0.011719,-0.007812,0.003906,6.100466,,,
8562088000,0.999573,-0.016052,0.025024,0.001709,-0.027344,-0.007812,0.003906,6.120396,,,
8591151000,0.999573,-0.016052,0.025024,0.001709,-0.027344,0.027344,0.003906,6.149459,,,
8601601000,0.999573,-0.016052,0.025024,0.001709,-0.027344,-0.007812,0.003906,6.159909,,,
8622194000,0.999573,-0.015991,0.025024,0.001709,0.011719,-0.007812,0.042969,6.180502,,,
8642569000,0.999573,-0.015991,0.025024,0.001709,-0.027344,0.027344,0.042969,6.200877,,,
8668075000,0.999573,-0.016052,0.025024,0.001709,0.019531,-0.007812,0.003906,6.226383,2.86,3.93,1.57
8682718000,0.999573,-0.016052,0.025024,0.001709,0.019531,-0.007812,0.003906,6.241026,,,
8711303000,0.999573,-0.016052,0.024963,0.001709,0.019531,-0.007812,0.003906,6.269611,,,
8730345000,0.999573,-0.015991,0.024963,0.001709,0.019531,-0.007812,0.042969,6.288653,,,
8740745000,0.999573,-0.015991,0.024963,0.001709,0.019531,-0.007812,0.003906,6.299053,,,
8762065000,0.999573,-0.016052,0.024963,0.001709,-0.019531,-0.007812,-0.003906,6.320373,,,
8786723000,0.999573,-0.016113,0.024902,0.001648,0.019531,-0.007812,-0.003906,6.345031,,,
8801707000,0.999573,-0.016052,0.024963,0.001648,0.019531,-0.007812,0.035156,6.360015,,,
8821700000,0.999573,-0.016052,0.024902,0.001648,-0.019531,-0.007812,-0.003906,6.380008,,,
8841621000,0.999573,-0.016052,0.024902,0.001648,0.019531,-0.007812,-0.003906,6.399929,,,
8870758000,0.999573,-0.016052,0.024902,0.001648,-0.019531,-0.007812,-0.003906,6.429066,2.86,3.89,1.57
8880485000,0.999573,-0.016113,0.024902,0.001648,0.019531,-0.007812,-0.003906,6.438793,,,
8901666000,0.999573,-0.016113,0.024902,0.001648,0.019531,-0.007812,-0.003906,6.459974,,,
8921725000,0.999573,-0.016113,0.024902,0.001648,0.019531,-0.007812,0.035156,6.480033,,,
8950213000,0.999573,-0.016174,0.024902,0.001648,0.019531,-0.007812,-0.003906,6.508521,,,
8960306000,0.999573,-0.016174,0.024902,0.001648,-0.019531,-0.007812,-0.003906,6.518614,,,
8981697000,0.999573,-0.016174,0.024902,0.001648,0.019531,-0.007812,-0.003906,6.540005,,,
9009746000,0.999573,-0.016174,0.024902,0.001648,-0.019531,-0.007812,0.003906,6.568054,,,
9027142000,0.999573,-0.016174,0.024902,0.001648,0.019531,-0.007812,0.003906,6.58545,,,
9041244000,0.999573,-0.016174,0.024902,0.001648,0.019531,0.027344,0.003906,6.599552,,,
9061440000,0.999573,-0.016174,0.024902,0.001648,-0.019531,-0.007812,0.003906,6.619748,,,
9100259000,0.999573,-0.016174,0.024902,0.001648,0.019531,-0.007812,0.003906,6.658567,2.88,3.88,1.57
9119728000,0.999573,-0.016174,0.024902,0.001648,0.019531,-0.007812,0.003906,6.678036,,,
9129756000,0.999573,-0.016174,0.024902,0.001648,-0.019531,-0.007812,0.003906,6.688064,,,
9140182000,0.999573,-0.016174,0.024902,0.001648,0.019531,-0.007812,0.042969,6.69849,,,
9162406000,0.999573,-0.016174,0.024902,0.001648,0.019531,-0.007812,0.042969,6.720714,,,
9192661000,0.999573,-0.016174,0.024841,0.001648,-0.019531,-0.007812,0.042969,6.750969,,,
9200400000,0.999573,-0.016174,0.024841,0.001648,-0.019531,-0.007812,-0.035156,6.758708,,,
9229285000,0.999573,-0.016235,0.024841,0.001648,0.019531,0.027344,0.003906,6.787593,,,
9249476000,0.999573,-0.016235,0.024841,0.001648,0.019531,0.027344,0.003906,6.807784,,,
9269285000,0.999573,-0.016235,0.024841,0.001648,0.019531,-0.007812,0.042969,6.827593,2.87,3.91,1.58
9280250000,0.999573,-0.016235,0.024841,0.001648,0.019531,0.027344,-0.003906,6.838558,,,
9310012000,0.999573,-0.016235,0.024841,0.001648,-0.019531,-0.007812,-0.003906,6.86832,,,
9328724000,0.999573,-0.016235,0.024841,0.001648,0.019531,-0.007812,-0.003906,6.887032,,,
9349389000,0.999573,-0.016235,0.024841,0.001648,-0.019531,-0.007812,0.035156,6.907697,,,
9360351000,0.999573,-0.016235,0.024841,0.001648,-0.019531,-0.007812,-0.003906,6.918659,,,
9388974000,0.999573,-0.016235,0.024841,0.001648,0.019531,0.027344,-0.003906,6.947282,,,
9409217000,0.999573,-0.016235,0.024841,0.001648,0.019531,0.027344,-0.003906,6.967525,,,
9431973000,0.999573,-0.016235,0.024841,0.001648,0.019531,-0.007812,0.035156,6.990281,,,
9448750000,0.999573,-0.016235,0.024841,0.001648,0.019531,0.027344,-0.003906,7.007058,,,
9469369000,0.999573,-0.016235,0.024841,0.001648,0.019531,-0.015625,-0.003906,7.027677,2.87,3.88,1.59
9494556000,0.999573,-0.016235,0.024841,0.001648,0.019531,-0.015625,-0.003906,7.052864,,,
9509045000,0.999573,-0.016174,0.024841,0.001587,-0.019531,0.019531,-0.003906,7.067353,,,
9530447000,0.999573,-0.016174,0.024841,0.001587,0.019531,-0.015625,-0.003906,7.088755,,,
9548541000,0.999573,-0.016113,0.024841,0.001648,-0.019531,-0.015625,0.003906,7.106849,,,
9570643000,0.999573,-0.016113,0.024841,0.001648,-0.019531,0.019531,0.003906,7.128951,,,
9588419000,0.999573,-0.016113,0.024841,0.001648,-0.019531,-0.007812,0.003906,7.146727,,,
9613046000,0.999573,-0.016113,0.024841,0.001648,0.019531,-0.007812,0.003906,7.171354,,,
9628001000,0.999573,-0.016113,0.024841,0.001648,0.019531,-0.007812,0.042969,7.186309,,,
9648178000,0.999573,-0.016113,0.024841,0.001648,0.019531,-0.007812,0.042969,7.206486,,,
9668363000,0.999573,-0.016113,0.024841,0.001648,0.019531,-0.007812,0.003906,7.226671,2.86,3.91,1.54
9693618000,0.999573,-0.016113,0.024841,0.001648,0.019531,0.027344,-0.003906,7.251926,,,
9707965000,0.999573,-0.016113,0.024841,0.001648,0.019531,-0.007812,0.035156,7.266273,,,
9727860000,0.999573,-0.016113,0.024841,0.001648,0.019531,-0.007812,-0.003906,7.286168,,,
9757728000,0.999573,-0.016113,0.024841,0.001648,-0.019531,-0.007812,-0.003906,7.316036,,,
9774749000,0.999573,-0.016113,0.024841,0.001648,-0.019531,0.027344,-0.003906,7.333057,,,
9787634000,0.999573,-0.016113,0.024841,0.001648,0.019531,0.027344,-0.003906,7.345942,,,
9807088000,0.999573,-0.016113,0.024841,0.001648,0.011719,-0.007812,-0.003906,7.365396,,,
9828675000,0.999573,-0.016113,0.024841,0.001648,0.011719,-0.007812,-0.003906,7.386983,,,
9852195000,0.999573,-0.016113,0.024841,0.001648,0.011719,-0.007812,-0.042969,7.410503,,,
9867506000,0.999573,-0.016113,0.024841,0.001648,0.011719,-0.007812,0.003906,7.425814,2.86,3.84,1.59
9887402000,0.999573,-0.016113,0.024841,0.001648,0.011719,-0.007812,0.003906,7.44571,,,
9909534000,0.999573,-0.016113,0.024841,0.001648,-0.027344,0.027344,0.003906,7.467842,,,
9937220000,0.999573,-0.016113,0.024841,0.001648,-0.027344,0.027344,0.003906,7.495528,,,
9947212000,0.999573,-0.016113,0.024841,0.001648,0.011719,-0.007812,0.042969,7.50552,,,
9966906000,0.999573,-0.016113,0.024841,0.001648,0.011719,0.027344,0.003906,7.525214,,,
9997528000,0.999573,-0.016113,0.024841,0.001648,0.019531,-0.015625,0.003906,7.555836,,,
10007438000,0.999573,-0.016113,0.024841,0.001648,0.019531,-0.015625,0.003906,7.565746,,,
10031827000,0.999573,-0.016113,0.024841,0.001648,0.019531,-0.015625,0.042969,7.590135,,,
10047245000,0.999573,-0.016113,0.024841,0.001648,0.019531,-0.015625,0.003906,7.605553,,,
10066994000,0.999573,-0.016113,0.024841,0.001648,0.019531,-0.007812,0.042969,7.625302,2.86,3.87,1.57
10087692000,0.999573,-0.016113,0.024841,0.001648,-0.019531,0.027344,0.003906,7.646,,,
10107063000,0.999573,-0.016113,0.024841,0.001648,0.019531,-0.007812,0.003906,7.665371,,,
10126901000,0.999573,-0.016113,0.024841,0.001648,0.019531,-0.007812,0.003906,7.685209,,,
10146950000,0.999573,-0.016113,0.024841,0.001648,-0.019531,-0.007812,0.003906,7.705258,,,
10171568000,0.999573,-0.016113,0.024841,0.001648,0.019531,0.019531,0.003906,7.729876,,,
10186429000,0.999573,-0.016113,0.024841,0.001648,-0.019531,-0.015625,0.003906,7.744737,,,
10206779000,0.999573,-0.016113,0.024841,0.001648,0.019531,0.019531,0.003906,7.765087,,,
10227553000,0.999573,-0.016113,0.024841,0.001648,0.019531,-0.015625,0.003906,7.785861,,,
10246054000,0.999573,-0.016113,0.024841,0.001648,-0.019531,-0.015625,0.003906,7.804362,,,
10266115000,0.999573,-0.016113,0.024841,0.001648,0.019531,-0.015625,0.003906,7.824423,2.85,3.88,1.58
10286187000,0.999573,-0.016113,0.024841,0.001648,0.019531,0.019531,0.003906,7.844495,,,
10310658000,0.999573,-0.016113,0.024841,0.001648,0.019531,-0.015625,0.003906,7.868966,,,
10326148000,0.999573,-0.016113,0.024841,0.001648,-0.019531,0.019531,0.003906,7.884456,,,
10346937000,0.999573,-0.016113,0.024841,0.001648,0.019531,-0.054688,0.003906,7.905245,,,
10370547000,0.999573,-0.016113,0.024841,0.001648,-0.019531,0.019531,0.042969,7.928855,,,
10385774000,0.999573,-0.016113,0.024841,0.001648,0.019531,-0.015625,-0.003906,7.944082,,,
10405778000,0.999573,-0.016113,0.024841,0.001648,-0.019531,0.019531,0.035156,7.964086,,,
10435798000,0.999573,-0.016113,0.024841,0.001648,-0.019531,-0.015625,-0.003906,7.994106,,,
10446344000,0.999573,-0.016113,0.024841,0.001648,0.019531,-0.015625,-0.003906,8.004652,,,
10465589000,0.999573,-0.016113,0.024841,0.001648,0.019531,-0.015625,0.035156,8.023897,,,
10485929000,0.999573,-0.016113,0.024841,0.001648,0.019531,-0.015625,-0.003906,8.044237,2.85,3.89,1.59
10506126000,0.999573,-0.016113,0.024841,0.001648,-0.019531,0.019531,-0.003906,8.064434,,,
10529004000,0.999573,-0.016113,0.024841,0.001648,0.019531,-0.015625,0.035156,8.087312,,,
10545308000,0.999573,-0.016113,0.024841,0.001648,-0.019531,-0.015625,0.035156,8.103616,,,
10567020000,0.999573,-0.016113,0.024841,0.001648,-0.019531,-0.015625,-0.003906,8.125328,,,
10585230000,0.999573,-0.016113,0.024841,0.001648,0.019531,-0.015625,-0.003906,8.143538,,,
10607135000,0.999573,-0.016113,0.024841,0.001648,0.019531,-0.015625,0.035156,8.165443,,,
10626937000,0.999573,-0.016113,0.024841,0.001648,0.019531,-0.015625,0.035156,8.185245,,,
10646634000,0.999573,-0.016113,0.024841,0.001648,0.019531,0.019531,-0.042969,8.204942,,,
10665283000,0.999573,-0.016113,0.024841,0.001648,0.019531,0.019531,-0.003906,8.223591,,,
10684914000,0.999573,-0.016113,0.024841,0.001648,-0.019531,-0.015625,-0.003906,8.243222,2.87,3.87,1.56
10705110000,0.999573,-0.016113,0.024841,0.001648,0.019531,-0.015625,-0.003906,8.263418,,,
10735213000,0.999573,-0.016113,0.024841,0.001648,-0.019531,-0.015625,-0.003906,8.293521,,,
10744910000,0.999573,-0.016113,0.024841,0.001648,0.019531,-0.015625,-0.003906,8.303218,,,
10765029000,0.999573,-0.016113,0.024841,0.001648,0.019531,0.019531,0.035156,8.323337,,,
10784902000,0.999573,-0.016113,0.024841,0.001648,-0.019531,0.019531,0.035156,8.34321,,,
10815176000,0.999573,-0.016113,0.024841,0.001648,0.019531,-0.015625,-0.003906,8.373484,,,
10824784000,0.999573,-0.016113,0.024841,0.001648,0.019531,-0.015625,-0.003906,8.383092,,,
10844671000,0.999573,-0.016113,0.024841,0.001648,0.011719,-0.015625,-0.003906,8.402979,,,
10866659000,0.999573,-0.016113,0.024841,0.001648,0.011719,-0.015625,-0.003906,8.424967,,,
10884421000,0.999573,-0.016113,0.024841,0.001648,0.011719,-0.015625,-0.003906,8.442729,2.86,3.89,1.55
10904854000,0.999573,-0.016113,0.024841,0.001648,-0.027344,-0.007812,-0.003906,8.463162,,,
10924846000,0.999573,-0.016113,0.024841,0.001648,0.011719,-0.007812,-0.003906,8.483154,,,
10945603000,0.999573,-0.016113,0.024841,0.001648,0.011719,-0.007812,-0.003906,8.503911,,,
10970848000,0.999573,-0.016113,0.024841,0.001648,0.011719,0.027344,0.003906,8.529156,,,
10984382000,0.999573,-0.016113,0.024841,0.001648,0.011719,-0.007812,0.003906,8.54269,,,
11004266000,0.999573,-0.016113,0.024841,0.001648,0.011719,-0.007812,0.003906,8.562574,,,
11023975000,0.999573,-0.016113,0.024841,0.001648,0.011719,-0.007812,0.003906,8.582283,,,
11044152000,0.999573,-0.016113,0.024841,0.001648,0.011719,-0.007812,0.003906,8.60246,,,
11074514000,0.999573,-0.016113,0.024841,0.001648,0.011719,-0.007812,0.003906,8.632822,2.86,3.88,1.55
11089537000,0.999573,-0.016113,0.024841,0.001648,0.011719,0.027344,0.003906,8.647845,,,
11104364000,0.999573,-0.016113,0.024841,0.001648,0.011719,-0.007812,0.003906,8.662672,,,
11125267000,0.999573,-0.016113,0.024841,0.001648,0.011719,-0.007812,0.003906,8.683575,,,
11143950000,0.999573,-0.016113,0.024841,0.001648,0.011719,0.027344,0.003906,8.702258,,,
11170075000,0.999573,-0.016113,0.024841,0.001648,-0.027344,-0.007812,0.003906,8.728383,,,
11183503000,0.999573,-0.016113,0.024841,0.001648,0.011719,0.027344,0.003906,8.741811,,,
11203258000,0.999573,-0.016113,0.024841,0.001648,0.011719,-0.007812,0.003906,8.761566,,,
11224072000,0.999573,-0.016113,0.024841,0.001648,0.011719,0.027344,0.003906,8.78238,,,
11253652000,0.999573,-0.016113,0.024841,0.001648,0.011719,-0.015625,0.003906,8.81196,,,
11263581000,0.999573,-0.016113,0.024841,0.001648,0.011719,-0.015625,0.003906,8.821889,,,
11283191000,0.999573,-0.016113,0.024841,0.001648,0.011719,-0.015625,0.042969,8.841499,2.86,3.87,1.58
11303481000,0.999573,-0.016113,0.024841,0.001648,0.011719,-0.015625,0.003906,8.861789,,,
11333536000,0.999573,-0.016113,0.024841,0.001648,0.011719,-0.007812,0.003906,8.891844,,,
11343259000,0.999573,-0.016113,0.024841,0.001648,0.011719,0.027344,0.003906,8.901567,,,
11362963000,0.999573,-0.016113,0.024841,0.001648,0.011719,0.019531,0.042969,8.921271,,,
11384652000,0.999573,-0.016113,0.024841,0.001648,0.011719,-0.015625,0.003906,8.94296,,,
11414129000,0.999573,-0.016113,0.024841,0.001648,0.011719,-0.015625,0.003906,8.972437,,,
11422991000,0.999573,-0.016113,0.024841,0.001648,0.011719,-0.015625,0.003906,8.981299,,,
11445689000,0.999573,-0.016113,0.024841,0.001648,-0.027344,-0.007812,0.003906,9.003997,,,
11463089000,0.999573,-0.016113,0.024841,0.001648,0.011719,0.027344,0.003906,9.021397,,,
11492861000,0.999573,-0.016113,0.024841,0.001648,0.011719,0.027344,-0.035156,9.051169,2.85,3.88,1.58
11502706000,0.999573,-0.016113,0.024841,0.001648,0.011719,-0.007812,0.003906,9.061014,,,
11523068000,0.999573,-0.016113,0.024841,0.001648,0.011719,-0.007812,0.003906,9.081376,,,
11550084000,0.999573,-0.016113,0.024841,0.001648,0.011719,0.027344,-0.035156,9.108392,,,
11562501000,0.999573,-0.016113,0.024841,0.001648,0.011719,-0.007812,0.003906,9.120809,,,
11582790000,0.999573,-0.016113,0.024841,0.001648,0.011719,-0.007812,0.003906,9.141098,,,
11612762000,0.999573,-0.016113,0.024841,0.001648,0.011719,-0.007812,0.003906,9.17107,,,
11622531000,0.999573,-0.016113,0.024841,0.001648,0.011719,-0.007812,0.003906,9.180839,,,
11651921000,0.999573,-0.016113,0.024841,0.001648,0.011719,0.027344,0.003906,9.210229,,,
11662521000,0.999573,-0.016113,0.024841,0.001648,0.011719,-0.007812,0.042969,9.220829,,,
11682649000,0.999573,-0.016113,0.024841,0.001648,0.011719,0.027344,0.003906,9.240957,2.85,3.87,1.58
11712308000,0.999573,-0.016113,0.024841,0.001648,0.011719,-0.015625,0.003906,9.270616,,,
11722447000,0.999573,-0.016113,0.024841,0.001648,0.011719,-0.015625,0.003906,9.280755,,,
11742399000,0.999573,-0.016113,0.024841,0.001648,0.011719,0.019531,0.003906,9.300707,,,
11762434000,0.999573,-0.016113,0.024841,0.001648,-0.027344,0.019531,0.042969,9.320742,,,
11782326000,0.999573,-0.016113,0.024841,0.001648,0.011719,-0.015625,0.003906,9.340634,,,
11802055000,0.999573,-0.016113,0.024841,0.001648,-0.027344,-0.015625,0.042969,9.360363,,,
11832397000,0.999573,-0.016113,0.024841,0.001648,0.011719,0.019531,0.003906,9.390705,,,
11841712000,0.999573,-0.016113,0.024841,0.001648,-0.027344,-0.015625,0.042969,9.40002,,,
11862461000,0.999573,-0.016113,0.024841,0.001648,0.011719,0.058594,0.042969,9.420769,,,
11882737000,0.999573,-0.016113,0.024841,0.001648,0.011719,-0.015625,0.003906,9.441045,2.87,3.88,1.56
11912118000,0.999573,-0.016113,0.024841,0.001648,0.011719,0.019531,0.035156,9.470426,,,
11921800000,0.999573,-0.016113,0.024841,0.001648,-0.027344,-0.015625,0.035156,9.480108,,,
11942664000,0.999573,-0.016113,0.024841,0.001648,0.011719,-0.015625,-0.003906,9.500972,,,
11963123000,0.999573,-0.016113,0.024841,0.001648,0.011719,-0.015625,-0.003906,9.521431,,,
11988331000,0.999573,-0.016113,0.024841,0.001648,-0.027344,0.019531,-0.003906,9.546639,,,
12001676000,0.999573,-0.016113,0.024841,0.001648,0.011719,0.019531,0.035156,9.559984,,,
12022424000,0.999573,-0.016113,0.024841,0.001648,-0.027344,-0.015625,-0.003906,9.580732,,,
12052439000,0.999573,-0.016113,0.024841,0.001648,0.019531,-0.015625,-0.003906,9.610747,,,
12061643000,0.999573,-0.016113,0.024841,0.001648,0.019531,-0.015625,0.035156,9.619951,,,
12082345000,0.999573,-0.016113,0.024841,0.001648,-0.019531,0.019531,-0.003906,9.640653,2.86,3.88,1.59
12111795000,0.999573,-0.016113,0.024841,0.001648,0.019531,0.019531,-0.003906,9.670103,,,
12131561000,0.999573,-0.016113,0.024841,0.001648,0.019531,0.019531,-0.003906,9.689869,,,
12140723000,0.999573,-0.016113,0.024841,0.001648,0.019531,0.019531,-0.003906,9.699031,,,
12164094000,0.999573,-0.016113,0.024841,0.001648,0.019531,0.019531,-0.003906,9.722402,,,
12182096000,0.999573,-0.016113,0.024841,0.001648,0.019531,0.019531,-0.003906,9.740404,,,
12201741000,0.999573,-0.016113,0.024841,0.001648,-0.019531,0.019531,-0.003906,9.760049,,,
12231456000,0.999573,-0.016113,0.024841,0.001648,0.019531,-0.015625,-0.003906,9.789764,,,
12250828000,0.999573,-0.016113,0.024841,0.001648,0.019531,0.019531,-0.003906,9.809136,,,
12262770000,0.999573,-0.016113,0.024841,0.001648,0.019531,0.019531,0.035156,9.821078,,,
12281873000,0.999573,-0.016113,0.024841,0.001648,0.019531,-0.015625,-0.003906,9.840181,2.88,3.88,1.55
12310381000,0.999573,-0.016113,0.024841,0.001648,0.011719,-0.015625,-0.003906,9.868689,,,
12320723000,0.999573,-0.016113,0.024841,0.001648,0.011719,-0.015625,0.035156,9.879031,,,
12341655000,0.999573,-0.016113,0.024841,0.001648,0.011719,-0.015625,-0.003906,9.899963,,,
12362246000,0.999573,-0.016113,0.024841,0.001648,0.011719,0.019531,-0.003906,9.920554,,,
12390775000,0.999573,-0.016113,0.024841,0.001648,0.011719,-0.015625,-0.003906,9.949083,,,
12400260000,0.999573,-0.016113,0.024841,0.001648,0.011719,-0.015625,-0.003906,9.958568,,,
12422008000,0.999573,-0.016113,0.024841,0.001648,0.011719,-0.015625,-0.003906,9.980316,,,
12441653000,0.999573,-0.016113,0.024841,0.001648,0.011719,-0.015625,-0.003906,9.999961,,,
12470047000,0.999573,-0.016113,0.024841,0.001648,-0.027344,-0.015625,0.035156,10.028355,,,
12480365000,0.999573,-0.016113,0.024841,0.001648,-0.027344,0.019531,0.035156,10.038673,2.86,3.85,1.59
12501623000,0.999573,-0.016113,0.024841,0.001648,0.011719,-0.015625,-0.003906,10.059931,,,
12521680000,0.999573,-0.016113,0.024841,0.001648,0.011719,-0.015625,-0.003906,10.079988,,,
12550022000,0.999573,-0.016113,0.024841,0.001648,-0.027344,-0.015625,0.035156,10.10833,,,
12560421000,0.999573,-0.016113,0.024841,0.001648,0.011719,-0.015625,-0.003906,10.118729,,,
12581718000,0.999573,-0.016113,0.024841,0.001648,0.011719,0.019531,-0.003906,10.140026,,,
12609567000,0.999573,-0.016113,0.024841,0.001648,0.011719,0.019531,-0.003906,10.167875,,,
12620367000,0.999573,-0.016113,0.024841,0.001648,0.011719,0.019531,-0.003906,10.178675,,,
12655736000,0.999573,-0.016113,0.024841,0.001648,0.011719,-0.015625,-0.003906,10.214044,,,
12670049000,0.999573,-0.016113,0.024841,0.001648,0.011719,-0.015625,-0.003906,10.228357,,,
12689940000,0.999573,-0.016113,0.024841,0.001648,-0.027344,-0.015625,-0.003906,10.248248,2.87,3.87,1.55
12700274000,0.999573,-0.016113,0.024841,0.001648,-0.027344,-0.015625,-0.003906,10.258582,,,
12729815000,0.999573,-0.016113,0.024841,0.001648,0.011719,-0.015625,0.035156,10.288123,,,
12749701000,0.999573,-0.016113,0.024841,0.001648,0.011719,-0.015625,-0.003906,10.308009,,,
12769644000,0.999573,-0.016113,0.024841,0.001648,0.011719,-0.015625,-0.003906,10.327952,,,
12791488000,0.999573,-0.016113,0.024841,0.001648,-0.027344,0.019531,0.035156,10.349796,,,
12815826000,0.999573,-0.016113,0.024841,0.001648,-0.027344,-0.007812,-0.003906,10.374134,,,
12829490000,0.999573,-0.016113,0.024841,0.001648,0.011719,-0.007812,-0.042969,10.387798,,,
12849278000,0.999573,-0.016113,0.024841,0.001648,-0.027344,0.019531,-0.003906,10.407586,,,
12870638000,0.999573,-0.016174,0.024841,0.001648,0.011719,0.019531,-0.042969,10.428946,,,
12889065000,0.999573,-0.016113,0.024841,0.001648,-0.027344,-0.015625,-0.082031,10.447373,2.86,3.89,1.57
12908914000,0.999573,-0.016113,0.024841,0.001648,0.019531,-0.015625,-0.003906,10.467222,,,
12929264000,0.999573,-0.016113,0.024841,0.001648,0.019531,-0.015625,0.042969,10.487572,,,
12949363000,0.999573,-0.016113,0.024841,0.001648,0.019531,0.019531,-0.035156,10.507671,,,
12971857000,0.999573,-0.016113,0.024841,0.001648,-0.019531,0.019531,-0.035156,10.530165,,,
12989163000,0.999573,-0.016174,0.024841,0.001648,-0.019531,0.019531,0.042969,10.547471,,,
13008962000,0.999573,-0.016174,0.024841,0.001648,0.019531,-0.015625,0.003906,10.56727,,,
13029206000,0.999573,-0.016174,0.024841,0.001648,0.019531,-0.015625,0.003906,10.587514,,,
13051563000,0.999573,-0.016174,0.024841,0.001648,-0.019531,-0.015625,0.003906,10.609871,,,
13069132000,0.999573,-0.016174,0.024841,0.001648,0.019531,-0.015625,0.003906,10.62744,,,
13088527000,0.999573,-0.016174,0.024841,0.001648,0.019531,-0.015625,0.003906,10.646835,2.86,3.84,1.57
13108709000,0.999573,-0.016174,0.024841,0.001831,0.019531,-0.015625,0.042969,10.667017,,,
13130560000,0.999573,-0.016235,0.025024,0.00238,0.96875,-0.132812,0.109375,10.688868,,,
13148640000,0.999573,-0.016296,0.025024,0.002747,0.578125,0.175781,-0.082031,10.706948,,,
13168414000,0.999573,-0.016418,0.024963,0.00293,0.15625,0.105469,-0.042969,10.726722,,,
13197971000,0.999573,-0.016541,0.02478,0.003052,0.039062,-0.078125,0.109375,10.756279,,,
13214503000,0.999573,-0.016602,0.024719,0.003052,0.15625,-0.078125,-0.042969,10.772811,,,
13228024000,0.999573,-0.016602,0.024597,0.002991,0.445312,0.0,-0.160156,10.786332,,,
13248849000,0.999573,-0.016663,0.024475,0.002869,0.0625,-0.039062,0.109375,10.807157,,,
13271370000,0.999573,-0.016602,0.02417,0.002563,0.09375,0.121094,-0.195312,10.829678,,,
13288378000,0.999573,-0.016479,0.023865,0.002197,0.238281,-0.070312,-0.195312,10.846686,2.86,3.89,1.56
13308484000,0.999573,-0.016602,0.02356,0.002014,0.230469,-0.070312,-0.273438,10.866792,,,
13328969000,0.999573,-0.016418,0.023254,0.001648,-0.121094,0.199219,-0.234375,10.887277,,,
13348102000,0.999573,-0.016724,0.02301,0.001465,0.667969,-0.300781,0.1875,10.90641,,,
13368065000,0.999573,-0.016846,0.022766,0.001221,1.15625,-0.023438,-0.121094,10.926373,,,
13391058000,0.999573,-0.01709,0.022644,0.001038,0.507812,-0.0625,-0.121094,10.949366,,,
13409214000,0.999634,-0.015625,0.021179,-0.000305,0.300781,0.703125,-0.386719,10.967522,,,
13427547000,0.999756,-0.013489,0.01886,-0.000671,-1.992188,-2.675781,12.359375,10.985855,,,
13448130000,0.999695,-0.014221,0.018799,-0.000732,-0.660156,-0.417969,4.390625,11.006438,,,
13467677000,0.999695,-0.014709,0.019104,-0.000793,-0.214844,-0.070312,-0.089844,11.025985,,,
13487771000,0.999695,-0.014404,0.018799,-0.000793,-0.589844,-0.0625,0.140625,11.046079,2.88,3.85,1.55
13507972000,0.999695,-0.014526,0.018799,-0.000793,-0.4375,-0.023438,-0.289062,11.06628,,,
13532454000,0.999695,-0.014343,0.018738,-0.000854,-0.4375,-0.0625,-0.402344,11.090762,,,
13547808000,0.999695,-0.014404,0.018738,-0.000854,-0.324219,0.128906,0.09375,11.106116,,,
13576969000,0.999695,-0.014526,0.018738,-0.000854,-0.253906,-0.0625,-0.136719,11.135277,,,
13599214000,0.999695,-0.014526,0.018799,-0.000854,-0.175781,0.089844,0.054688,11.157522,,,
13607227000,0.999695,-0.014465,0.018799,-0.000916,-0.214844,0.050781,-0.019531,11.165535,,,
13628127000,0.999695,-0.014282,0.018738,-0.000916,-0.253906,0.050781,-0.210938,11.186435,,,
13653388000,0.999695,-0.014404,0.018799,-0.000916,-0.214844,0.011719,-0.136719,11.211696,,,
13667641000,0.999695,-0.014343,0.018799,-0.000916,-0.101562,0.011719,-0.097656,11.225949,,,
13686981000,0.999695,-0.014404,0.018799,-0.000977,0.398438,0.011719,0.054688,11.245289,2.89,3.87,1.57
13717167000,0.999695,-0.014465,0.018738,-0.000977,0.207031,-0.0625,0.09375,11.275475,,,
13727299000,0.999695,-0.014465,0.018799,-0.000977,-0.253906,-0.101562,0.054688,11.285607,,,
13746957000,0.999695,-0.014465,0.018738,-0.000977,0.089844,0.050781,-0.175781,11.305265,,,
13766491000,0.999695,-0.014526,0.01886,-0.001038,-0.523438,0.167969,0.019531,11.324799,,,
13796347000,0.999695,-0.014465,0.018799,-0.001038,-0.140625,-0.023438,0.054688,11.354655,,,
13806737000,0.999695,-0.014465,0.018799,-0.001038,0.320312,-0.023438,-0.136719,11.365045,,,
13826131000,0.999695,-0.014465,0.018799,-0.001038,0.320312,0.011719,-0.136719,11.384439,,,
13851292000,0.999695,-0.014465,0.01886,-0.001038,-0.445312,-0.023438,0.246094,11.4096,,,
13866540000,0.999695,-0.014404,0.018799,-0.001099,-0.714844,-0.0625,-0.097656,11.424848,,,
13888909000,0.999695,-0.014343,0.018799,-0.001099,-0.214844,-0.023438,-0.058594,11.447217,2.9,3.83,1.56
13906403000,0.999695,-0.014465,0.01886,-0.001099,0.128906,-0.023438,0.019531,11.464711,,,
13926881000,0.999695,-0.014343,0.018738,-0.001099,0.167969,-0.0625,0.09375,11.485189,,,
13946325000,0.999695,-0.014343,0.018677,-0.00116,-0.214844,0.050781,0.132812,11.504633,,,
13970444000,0.999695,-0.014465,0.018799,-0.00116,-0.40625,0.011719,-0.019531,11.528752,,,
13986116000,0.999695,-0.014404,0.018616,-0.001221,-0.597656,0.058594,-0.25,11.544424,,,
14006387000,0.999695,-0.014404,0.018677,-0.001221,-0.714844,0.089844,0.171875,11.564695,,,
14027382000,0.999695,-0.014404,0.018677,-0.001221,-0.445312,-0.023438,-0.175781,11.58569,,,
14051350000,0.999695,-0.014465,0.018738,-0.001221,-0.0625,-0.023438,-0.019531,11.609658,,,
14066374000,0.999695,-0.014465,0.018738,-0.001221,-0.0625,0.011719,-0.019531,11.624682,,,
14085991000,0.999695,-0.014465,0.018738,-0.00116,0.058594,0.011719,-0.058594,11.644299,2.88,3.79,1.59
14112377000,0.999695,-0.014465,0.018677,-0.00116,0.023438,0.019531,-0.019531,11.670685,,,
14125482000,0.999695,-0.014465,0.018677,-0.00116,-0.132812,0.011719,-0.019531,11.68379,,,
14145755000,0.999695,-0.014465,0.018677,-0.00116,-0.015625,0.011719,-0.058594,11.704063,,,
14166051000,0.999695,-0.014465,0.018677,-0.00116,-0.015625,0.019531,-0.019531,11.724359,,,
14185332000,0.999695,-0.014404,0.018677,-0.001221,-0.015625,-0.023438,0.019531,11.74364,,,
14205553000,0.999695,-0.014404,0.018616,-0.001221,0.023438,-0.023438,0.019531,11.763861,,,
14235844000,0.999695,-0.014343,0.018555,-0.00116,-0.023438,-0.023438,0.019531,11.794152,,,
14246038000,0.999695,-0.014343,0.018555,-0.00116,-0.0625,0.011719,0.019531,11.804346,,,
14265855000,0.999695,-0.014343,0.018555,-0.001221,-0.023438,0.011719,0.019531,11.824163,,,
14291654000,0.999695,-0.014343,0.018555,-0.001221,-0.054688,0.011719,-0.019531,11.849962,2.87,3.83,1.55
14304971000,0.999695,-0.014343,0.018555,-0.001221,-0.015625,-0.023438,0.019531,11.863279,,,
14325366000,0.999695,-0.014343,0.018555,-0.001221,-0.054688,0.011719,-0.019531,11.883674,,,
14349394000,0.999695,-0.014343,0.018555,-0.001282,-0.054688,0.011719,-0.019531,11.907702,,,
14365127000,0.999695,-0.014343,0.018555,-0.001282,0.023438,0.011719,-0.011719,11.923435,,,
14385305000,0.999695,-0.014343,0.018494,-0.001282,0.023438,-0.023438,-0.011719,11.943613,,,
14405742000,0.999695,-0.014343,0.018555,-0.001282,-0.015625,0.011719,-0.011719,11.96405,,,
14430187000,0.999695,-0.014404,0.018555,-0.001221,0.023438,0.011719,-0.011719,11.988495,,,
14444631000,0.999695,-0.014343,0.018555,-0.001282,0.023438,0.011719,-0.011719,12.002939,,,
14464761000,0.999695,-0.014404,0.018555,-0.001282,-0.015625,-0.023438,-0.011719,12.023069,,,
14486398000,0.999695,-0.014404,0.018555,-0.001282,0.023438,0.011719,0.027344,12.044706,2.9,3.75,1.56
14510564000,0.999695,-0.014404,0.018555,-0.001282,0.023438,0.011719,-0.011719,12.068872,,,
14525338000,0.999695,-0.014404,0.018555,-0.001282,-0.023438,0.011719,-0.050781,12.083646,,,
14544959000,0.999695,-0.014404,0.018555,-0.001282,-0.023438,-0.023438,-0.011719,12.103267,,,
14565267000,0.999695,-0.014404,0.018555,-0.001282,-0.023438,0.011719,-0.011719,12.123575,,,
14588466000,0.999695,-0.014404,0.018494,-0.001221,0.015625,0.011719,-0.003906,12.146774,,,
14604989000,0.999695,-0.014404,0.018494,-0.001221,-0.023438,0.011719,-0.003906,12.163297,,,
14624698000,0.999695,-0.014404,0.018494,-0.001221,0.015625,0.011719,-0.003906,12.183006,,,
14645275000,0.999695,-0.014404,0.018494,-0.001221,0.015625,0.011719,-0.003906,12.203583,,,
14664936000,0.999695,-0.014404,0.018494,-0.001221,0.015625,0.011719,-0.003906,12.223244,,,
14694461000,0.999695,-0.014404,0.018494,-0.001282,0.015625,0.003906,-0.003906,12.252769,2.9,3.79,1.54
14704684000,0.999695,-0.014404,0.018494,-0.001282,-0.023438,0.003906,-0.003906,12.262992,,,
14724502000,0.999695,-0.014404,0.018433,-0.001221,0.015625,0.003906,-0.003906,12.28281,,,
14744159000,0.999756,-0.014404,0.018433,-0.001282,-0.023438,0.003906,0.035156,12.302467,,,
14769849000,0.999756,-0.014343,0.018433,-0.001221,0.015625,0.003906,-0.003906,12.328157,,,
14784059000,0.999756,-0.014404,0.018433,-0.001282,-0.023438,0.003906,-0.003906,12.342367,,,
14803993000,0.999756,-0.014404,0.018433,-0.001282,0.015625,0.003906,0.035156,12.362301,,,
14833773000,0.999756,-0.014343,0.018433,-0.001221,0.015625,0.003906,0.035156,12.392081,,,
14844456000,0.999756,-0.014343,0.018433,-0.001282,0.015625,0.003906,0.035156,12.402764,,,
14864638000,0.999756,-0.014343,0.018433,-0.001282,0.015625,-0.03125,-0.003906,12.422946,,,
14893422000,0.999756,-0.014343,0.018433,-0.001282,0.015625,-0.03125,-0.003906,12.45173,2.88,3.81,1.58
14903944000,0.999756,-0.014343,0.018433,-0.001282,-0.023438,0.003906,-0.003906,12.462252,,,
14925648000,0.999756,-0.014343,0.018433,-0.001282,0.015625,-0.03125,-0.003906,12.483956,,,
14943908000,0.999756,-0.014404,0.018433,-0.001221,-0.023438,0.003906,-0.003906,12.502216,,,
14973525000,0.999756,-0.014343,0.018433,-0.001221,-0.023438,-0.03125,-0.003906,12.531833,,,
14983960000,0.999756,-0.014343,0.018433,-0.001221,-0.023438,0.003906,-0.003906,12.542268,,,
15003395000,0.999756,-0.014343,0.018433,-0.001221,-0.015625,-0.03125,-0.003906,12.561703,,,
15023568000,0.999756,-0.014343,0.018433,-0.001221,0.023438,0.003906,0.035156,12.581876,,,
15043457000,0.999756,-0.014343,0.018433,-0.001221,-0.015625,0.003906,-0.003906,12.601765,,,
15073392000,0.999756,-0.014343,0.018433,-0.001282,0.023438,0.003906,-0.003906,12.6317,,,
15083097000,0.999756,-0.014343,0.018433,-0.001282,-0.015625,0.003906,-0.003906,12.641405,,,
15103324000,0.999756,-0.014343,0.018433,-0.001282,-0.015625,0.003906,-0.003906,12.661632,2.87,3.85,1.57
15132425000,0.999756,-0.014343,0.018433,-0.001282,-0.015625,0.003906,-0.003906,12.690733,,,
15143011000,0.999756,-0.014343,0.018433,-0.001282,-0.015625,0.003906,-0.003906,12.701319,,,
15163848000,0.999756,-0.014404,0.018433,-0.001282,0.023438,0.003906,-0.003906,12.722156,,,
15184640000,0.999695,-0.014404,0.018433,-0.001282,0.023438,0.003906,0.035156,12.742948,,,
15209329000,0.999756,-0.014404,0.018433,-0.001282,-0.015625,0.003906,0.035156,12.767637,,,
15223078000,0.999756,-0.014404,0.018433,-0.001282,-0.015625,0.003906,-0.003906,12.781386,,,
15243379000,0.999756,-0.014404,0.018433,-0.001282,-0.015625,0.003906,-0.003906,12.801687,,,
15263150000,0.999695,-0.014465,0.018433,-0.001282,0.023438,0.003906,-0.003906,12.821458,,,
15292217000,0.999695,-0.014465,0.018433,-0.001282,0.023438,0.011719,-0.003906,12.850525,2.88,3.81,1.57
15302998000,0.999695,-0.014465,0.018433,-0.001282,0.023438,0.011719,-0.003906,12.861306,,,
15322583000,0.999695,-0.014465,0.018433,-0.001282,-0.015625,0.003906,-0.003906,12.880891,,,
15353194000,0.999695,-0.014465,0.018494,-0.001282,-0.015625,0.003906,0.035156,12.911502,,,
15369340000,0.999695,-0.014465,0.018494,-0.001282,-0.015625,-0.039062,-0.003906,12.927648,,,
15382464000,0.999695,-0.014465,0.018494,-0.001343,0.023438,-0.023438,0.035156,12.940772,,,
15402645000,0.999695,-0.014465,0.018494,-0.001282,-0.015625,0.011719,-0.003906,12.960953,,,
15423052000,0.999695,-0.014465,0.018494,-0.001343,-0.015625,0.011719,-0.003906,12.98136,,,
15451899000,0.999695,-0.014465,0.018494,-0.001343,-0.015625,0.011719,-0.003906,13.010207,,,
15462657000,0.999695,-0.014465,0.018494,-0.001343,0.023438,0.011719,-0.003906,13.020965,,,
15491998000,0.999695,-0.014404,0.018494,-0.001343,-0.015625,0.003906,-0.003906,13.050306,2.88,3.81,1.58
15502473000,0.999695,-0.014404,0.018494,-0.001343,-0.015625,0.003906,0.035156,13.060781,,,
15522641000,0.999695,-0.014404,0.018555,-0.001343,-0.015625,0.003906,-0.003906,13.080949,,,
15551543000,0.999695,-0.014404,0.018494,-0.001343,0.023438,0.003906,-0.003906,13.109851,,,
15561760000,0.999695,-0.014404,0.018494,-0.001343,-0.015625,0.003906,-0.003906,13.120068,,,
15582645000,0.999695,-0.014404,0.018494,-0.001343,-0.015625,0.003906,-0.003906,13.140953,,,
15602436000,0.999695,-0.014404,0.018494,-0.001343,0.023438,-0.03125,-0.003906,13.160744,,,
15631327000,0.999695,-0.014404,0.018494,-0.001343,-0.015625,0.003906,-0.003906,13.189635,,,
15646660000,0.999695,-0.014404,0.018494,-0.001343,0.023438,0.003906,0.035156,13.204968,,,
15668472000,0.999695,-0.014404,0.018494,-0.001343,0.023438,-0.03125,-0.003906,13.22678,,,
15682077000,0.999695,-0.014404,0.018494,-0.001343,-0.015625,-0.03125,-0.042969,13.240385,,,
15710913000,0.999695,-0.014404,0.018494,-0.001343,0.023438,0.003906,-0.003906,13.269221,2.87,3.82,1.56
15721373000,0.999695,-0.014404,0.018494,-0.001343,0.023438,0.003906,-0.003906,13.279681,,,
15742152000,0.999695,-0.014404,0.018494,-0.001343,-0.015625,0.003906,-0.003906,13.30046,,,
15762071000,0.999695,-0.014404,0.018494,-0.001343,-0.015625,0.003906,-0.003906,13.320379,,,
15792671000,0.999695,-0.014404,0.018494,-0.001343,0.023438,0.003906,-0.003906,13.350979,,,
15801854000,0.999695,-0.014404,0.018494,-0.001343,0.023438,0.003906,-0.003906,13.360162,,,
15830725000,0.999695,-0.014404,0.018494,-0.001343,-0.015625,0.003906,-0.003906,13.389033,,,
15850404000,0.999695,-0.014404,0.018494,-0.001343,0.023438,0.003906,-0.003906,13.408712,,,
15866601000,0.999695,-0.014404,0.018494,-0.001343,-0.015625,0.003906,-0.003906,13.424909,,,
15881700000,0.999695,-0.014404,0.018494,-0.001343,-0.015625,-0.03125,-0.003906,13.440008,,,
15901601000,0.999695,-0.014404,0.018494,-0.001343,-0.015625,0.003906,0.035156,13.459909,2.9,3.82,1.57
15930486000,0.999695,-0.014404,0.018494,-0.001343,-0.015625,0.003906,0.035156,13.488794,,,
15940773000,0.999695,-0.014404,0.018494,-0.001343,-0.015625,0.003906,-0.003906,13.499081,,,
15961701000,0.999695,-0.014404,0.018494,-0.001343,-0.015625,0.003906,-0.003906,13.520009,,,
15990401000,0.999695,-0.014404,0.018494,-0.001343,0.023438,0.003906,-0.003906,13.548709,,,
16006357000,0.999695,-0.014404,0.018494,-0.001343,0.023438,0.003906,-0.003906,13.564665,,,
16021489000,0.999695,-0.014404,0.018494,-0.001343,-0.015625,0.003906,-0.003906,13.579797,,,
16041668000,0.999695,-0.014404,0.018494,-0.001343,0.023438,0.003906,0.035156,13.599976,,,
16062105000,0.999695,-0.014404,0.018494,-0.001343,-0.015625,0.003906,0.035156,13.620413,,,
16086438000,0.999695,-0.014404,0.018494,-0.001343,0.023438,0.003906,-0.003906,13.644746,,,
16101193000,0.999695,-0.014404,0.018494,-0.001343,0.023438,0.003906,0.035156,13.659501,2.9,3.8,1.55
16121600000,0.999695,-0.014404,0.018494,-0.001343,-0.015625,-0.03125,0.035156,13.679908,,,
16141911000,0.999695,-0.014404,0.018494,-0.001343,0.023438,-0.03125,0.035156,13.700219,,,
16168223000,0.999695,-0.014404,0.018555,-0.001343,-0.015625,0.003906,-0.003906,13.726531,,,
16181197000,0.999695,-0.014404,0.018555,-0.001343,-0.015625,0.003906,-0.003906,13.739505,,,
16201640000,0.999695,-0.014404,0.018494,-0.001343,0.023438,0.003906,-0.003906,13.759948,,,
16229424000,0.999695,-0.014404,0.018494,-0.001404,0.023438,0.003906,-0.003906,13.787732,,,
16240263000,0.999695,-0.014404,0.018494,-0.001404,0.023438,0.003906,0.035156,13.798571,,,
16267510000,0.999695,-0.014404,0.018494,-0.001404,0.023438,0.003906,-0.003906,13.825818,,,
16281246000,0.999695,-0.014404,0.018494,-0.001404,0.023438,0.003906,-0.003906,13.839554,,,
16309701000,0.999695,-0.014404,0.018494,-0.001404,-0.015625,-0.03125,-0.003906,13.868009,2.89,3.84,1.59
16320307000,0.999695,-0.014404,0.018494,-0.001404,0.023438,0.003906,-0.003906,13.878615,,,
16349601000,0.999695,-0.014343,0.018555,-0.001404,0.023438,-0.03125,-0.003906,13.907909,,,
16369760000,0.999695,-0.014343,0.018555,-0.001404,0.023438,-0.03125,0.035156,13.928068,,,
16396064000,0.999695,-0.014343,0.018555,-0.001404,-0.015625,0.003906,-0.003906,13.954372,,,
16409195000,0.999695,-0.014343,0.018555,-0.001404,0.023438,0.003906,-0.003906,13.967503,,,
16428966000,0.999695,-0.014343,0.018555,-0.001404,-0.015625,0.003906,-0.003906,13.987274,,,
16440254000,0.999695,-0.014343,0.018555,-0.001404,-0.015625,0.003906,0.035156,13.998562,,,
16469064000,0.999695,-0.014343,0.018555,-0.001404,0.023438,0.003906,0.035156,14.027372,,,
16480181000,0.999695,-0.014343,0.018555,-0.001404,0.023438,0.003906,-0.003906,14.038489,,,
16509397000,0.999695,-0.014343,0.018555,-0.001404,-0.015625,-0.03125,-0.003906,14.067705,2.88,3.84,1.57
16529549000,0.999695,-0.014282,0.018555,-0.001404,-0.015625,-0.03125,-0.003906,14.087857,,,
16549183000,0.999695,-0.014282,0.018555,-0.001465,-0.023438,-0.03125,-0.003906,14.107491,,,
16572470000,0.999695,-0.014343,0.018555,-0.001404,-0.023438,0.003906,-0.003906,14.130778,,,
16589430000,0.999695,-0.014343,0.018555,-0.001465,0.015625,-0.03125,0.035156,14.147738,,,
16609323000,0.999695,-0.014343,0.018555,-0.001404,-0.023438,0.003906,-0.003906,14.167631,,,
16629381000,0.999695,-0.014282,0.018555,-0.001404,0.015625,0.003906,-0.003906,14.187689,,,
16655760000,0.999695,-0.014282,0.018555,-0.001404,0.015625,0.003906,-0.003906,14.214068,,,
16668329000,0.999695,-0.014282,0.018555,-0.001404,0.015625,0.003906,-0.003906,14.226637,,,
16688905000,0.999695,-0.014343,0.018555,-0.001404,-0.023438,0.003906,-0.003906,14.247213,2.87,3.85,1.54
16700254000,0.999695,-0.014343,0.018494,-0.001404,-0.023438,-0.03125,-0.003906,14.258562,,,
16733901000,0.999695,-0.014343,0.018494,-0.001404,-0.023438,0.003906,0.035156,14.292209,,,
16748339000,0.999695,-0.014343,0.018555,-0.001404,0.023438,-0.03125,-0.003906,14.306647,,,
16770531000,0.999695,-0.014343,0.018555,-0.001404,-0.015625,0.003906,0.035156,14.328839,,,
16789989000,0.999695,-0.014343,0.018555,-0.001404,-0.015625,0.003906,-0.003906,14.348297,,,
16816453000,0.999695,-0.014343,0.018494,-0.001404,0.023438,0.003906,-0.003906,14.374761,,,
16827951000,0.999695,-0.014343,0.018555,-0.001404,-0.015625,0.003906,-0.003906,14.386259,,,
16848657000,0.999695,-0.014343,0.018555,-0.001404,-0.015625,-0.03125,-0.003906,14.406965,,,
16874912000,0.999695,-0.014343,0.018555,-0.001404,-0.015625,0.003906,-0.003906,14.43322,,,
16888565000,0.999695,-0.014343,0.018555,-0.001404,-0.015625,0.003906,-0.003906,14.446873,,,
16907848000,0.999695,-0.014343,0.018555,-0.001404,0.023438,0.003906,-0.003906,14.466156,2.88,3.85,1.57
16930585000,0.999695,-0.014343,0.018555,-0.001404,-0.015625,0.003906,-0.003906,14.488893,,,
16948466000,0.999695,-0.014343,0.018555,-0.001404,0.023438,0.003906,0.035156,14.506774,,,
16968024000,0.999695,-0.014343,0.018555,-0.001404,-0.015625,0.003906,-0.003906,14.526332,,,
16988251000,0.999695,-0.014343,0.018555,-0.001343,-0.015625,0.003906,-0.003906,14.546559,,,
17014350000,0.999695,-0.014343,0.018555,-0.001343,-0.015625,0.003906,-0.003906,14.572658,,,
17027620000,0.999695,-0.014343,0.018555,-0.001343,0.023438,0.003906,0.035156,14.585928,,,
17048324000,0.999695,-0.014343,0.018555,-0.001343,0.023438,0.003906,-0.003906,14.606632,,,
17068036000,0.999695,-0.014343,0.018555,-0.001343,-0.015625,0.003906,-0.003906,14.626344,,,
17087691000,0.999695,-0.014343,0.018555,-0.001343,-0.015625,0.003906,-0.003906,14.645999,,,
17112072000,0.999695,-0.014343,0.018555,-0.001343,0.023438,0.003906,-0.003906,14.67038,2.88,3.83,1.59
17127250000,0.999695,-0.014343,0.018555,-0.001343,-0.015625,0.003906,0.035156,14.685558,,,
17147691000,0.999695,-0.014282,0.018555,-0.001404,0.023438,-0.003906,-0.003906,14.705999,,,
17167198000,0.999695,-0.014282,0.018555,-0.001343,-0.015625,-0.003906,0.035156,14.725506,,,
17187183000,0.999695,-0.014282,0.018555,-0.001343,-0.015625,-0.003906,-0.003906,14.745491,,,
17213187000,0.999695,-0.014282,0.018555,-0.001343,-0.015625,-0.003906,0.035156,14.771495,,,
17227513000,0.999695,-0.014221,0.018555,-0.001343,-0.015625,-0.003906,-0.003906,14.785821,,,
17246961000,0.999695,-0.014282,0.018555,-0.001343,0.023438,-0.003906,-0.003906,14.805269,,,
17269389000,0.999695,-0.014221,0.018555,-0.001343,0.023438,-0.003906,0.035156,14.827697,,,
17286943000,0.999695,-0.014221,0.018616,-0.001343,0.023438,-0.003906,-0.003906,14.845251,,,
17307230000,0.999756,-0.014221,0.018555,-0.001343,0.023438,-0.003906,-0.003906,14.865538,2.89,3.82,1.57
17326938000,0.999756,-0.014221,0.018555,-0.001343,0.023438,-0.003906,0.035156,14.885246,,,
17357189000,0.999756,-0.014221,0.018555,-0.001343,-0.015625,-0.003906,-0.003906,14.915497,,,
17366446000,0.999695,-0.014282,0.018555,-0.001343,-0.015625,-0.003906,-0.003906,14.924754,,,
17386702000,0.999695,-0.014282,0.018555,-0.001343,-0.015625,-0.003906,-0.003906,14.94501,,,
17407347000,0.999756,-0.014221,0.018555,-0.001343,0.023438,-0.003906,0.035156,14.965655,,,
17430568000,0.999756,-0.014221,0.018555,-0.001343,0.023438,-0.003906,-0.003906,14.988876,,,
17447077000,0.999756,-0.01416,0.018555,-0.001343,-0.015625,-0.003906,0.035156,15.005385,,,
17466299000,0.999756,-0.01416,0.018555,-0.001343,0.023438,-0.003906,-0.003906,15.024607,,,
17486473000,0.999756,-0.014221,0.018494,-0.001343,-0.015625,-0.003906,-0.003906,15.044781,,,
17509150000,0.999756,-0.01416,0.018494,-0.001343,0.023438,-0.003906,-0.003906,15.067458,2.87,3.82,1.56
17526771000,0.999756,-0.014221,0.018494,-0.001343,0.023438,-0.003906,0.035156,15.085079,,,
17545928000,0.999756,-0.01416,0.018494,-0.001343,-0.015625,0.003906,-0.003906,15.104236,,,
17567044000,0.999756,-0.01416,0.018494,-0.001343,0.023438,-0.03125,0.035156,15.125352,,,
17593338000,0.999756,-0.01416,0.018494,-0.001343,0.023438,0.003906,-0.003906,15.151646,,,
17605725000,0.999756,-0.01416,0.018494,-0.001343,0.023438,0.003906,-0.003906,15.164033,,,
17626168000,0.999756,-0.01416,0.018494,-0.001343,-0.015625,0.003906,0.035156,15.184476,,,
17650594000,0.999756,-0.01416,0.018494,-0.001343,-0.015625,0.003906,-0.003906,15.208902,,,
17666215000,0.999756,-0.01416,0.018494,-0.001343,-0.015625,0.003906,-0.003906,15.224523,,,
17685463000,0.999756,-0.01416,0.018494,-0.001343,-0.015625,-0.03125,-0.003906,15.243771,,,
17707488000,0.999756,-0.01416,0.018494,-0.001343,-0.015625,0.003906,-0.003906,15.265796,2.88,3.82,1.57
17725332000,0.999756,-0.01416,0.018494,-0.001343,-0.015625,0.003906,-0.003906,15.28364,,,
17745146000,0.999756,-0.01416,0.018494,-0.001343,-0.015625,0.003906,0.035156,15.303454,,,
17765472000,0.999756,-0.01416,0.018494,-0.001343,-0.015625,0.003906,0.035156,15.32378,,,
17795250000,0.999756,-0.01416,0.018494,-0.001343,0.023438,0.003906,-0.003906,15.353558,,,
17805684000,0.999756,-0.01416,0.018494,-0.001343,-0.015625,0.003906,0.035156,15.363992,,,
17827320000,0.999756,-0.01416,0.018494,-0.001343,0.023438,0.003906,-0.003906,15.385628,,,
17846156000,0.999756,-0.01416,0.018494,-0.001343,0.023438,0.003906,-0.003906,15.404464,,,
17866233000,0.999756,-0.01416,0.018494,-0.001343,0.023438,0.003906,-0.003906,15.424541,,,
17891420000,0.999756,-0.01416,0.018494,-0.001343,0.023438,0.003906,-0.003906,15.449728,2.86,3.81,1.56
17905494000,0.999756,-0.01416,0.018494,-0.001343,0.023438,0.003906,-0.003906,15.463802,,,
17924944000,0.999756,-0.01416,0.018494,-0.001343,-0.023438,-0.03125,-0.003906,15.483252,,,
17954869000,0.999756,-0.01416,0.018494,-0.001343,0.015625,0.003906,-0.003906,15.513177,,,
17964644000,0.999756,-0.01416,0.018494,-0.001343,0.015625,0.003906,-0.003906,15.522952,,,
17984871000,0.999756,-0.01416,0.018494,-0.001343,-0.023438,0.003906,-0.003906,15.543179,,,
18005235000,0.999756,-0.01416,0.018494,-0.001343,0.015625,0.003906,-0.003906,15.563543,,,
18024633000,0.999756,-0.01416,0.018494,-0.001343,0.015625,0.003906,0.035156,15.582941,,,
18044384000,0.999756,-0.01416,0.018494,-0.001343,0.015625,-0.03125,-0.003906,15.602692,,,
18064595000,0.999756,-0.01416,0.018494,-0.001343,-0.023438,-0.03125,0.035156,15.622903,,,
18084776000,0.999756,-0.01416,0.018494,-0.001343,0.015625,0.003906,-0.003906,15.643084,,,
18114349000,0.999756,-0.01416,0.018494,-0.001343,-0.023438,0.003906,-0.003906,15.672657,2.87,3.86,1.54
18125134000,0.999756,-0.01416,0.018494,-0.001343,-0.023438,0.003906,-0.003906,15.683442,,,
18144440000,0.999756,-0.01416,0.018494,-0.001343,0.015625,0.003906,-0.003906,15.702748,,,
18164739000,0.999756,-0.01416,0.018494,-0.001343,-0.023438,0.003906,-0.003906,15.723047,,,
18194347000,0.999756,-0.01416,0.018494,-0.001343,0.015625,0.003906,-0.003906,15.752655,,,
18204201000,0.999756,-0.01416,0.018494,-0.001343,-0.023438,0.003906,-0.003906,15.762509,,,
18234108000,0.999756,-0.01416,0.018494,-0.001343,0.015625,0.003906,0.035156,15.792416,,,
18250107000,0.999756,-0.01416,0.018494,-0.001343,-0.023438,0.003906,0.035156,15.808415,,,
18263830000,0.999756,-0.01416,0.018494,-0.001343,0.015625,0.003906,0.035156,15.822138,,,
18289283000,0.999756,-0.01416,0.018494,-0.001343,-0.023438,0.003906,-0.003906,15.847591,,,
18312666000,0.999756,-0.01416,0.018494,-0.001343,0.015625,-0.03125,-0.003906,15.870974,2.89,3.85,1.58
18323765000,0.999756,-0.01416,0.018494,-0.001343,-0.023438,0.003906,-0.003906,15.882073,,,
18343857000,0.999756,-0.01416,0.018494,-0.001343,-0.023438,0.003906,-0.003906,15.902165,,,
18374442000,0.999756,-0.01416,0.018494,-0.001343,0.023438,0.003906,0.035156,15.93275,,,
18383513000,0.999756,-0.01416,0.018494,-0.001343,-0.015625,-0.03125,-0.003906,15.941821,,,
18403561000,0.999756,-0.01416,0.018494,-0.001343,0.023438,0.003906,0.035156,15.961869,,,
18424254000,0.999756,-0.01416,0.018494,-0.001343,0.023438,-0.03125,-0.003906,15.982562,,,
18453591000,0.999756,-0.01416,0.018494,-0.001343,0.023438,0.003906,-0.003906,16.011899,,,
18463596000,0.999756,-0.01416,0.018494,-0.001343,0.023438,0.003906,-0.003906,16.021904,,,
18483907000,0.999756,-0.01416,0.018494,-0.001343,-0.015625,0.003906,0.035156,16.042215,,,
18503654000,0.999756,-0.01416,0.018494,-0.001343,-0.015625,0.003906,0.035156,16.061962,2.9,3.82,1.56
18533890000,0.999756,-0.01416,0.018494,-0.001343,0.023438,0.003906,-0.042969,16.092198,,,
18543270000,0.999756,-0.01416,0.018494,-0.001343,0.023438,0.003906,-0.003906,16.101578,,,
18563245000,0.999756,-0.01416,0.018494,-0.001343,-0.015625,-0.03125,0.035156,16.121553,,,
18583338000,0.999756,-0.01416,0.018494,-0.001343,0.023438,0.003906,-0.003906,16.141646,,,
18613366000,0.999756,-0.01416,0.018494,-0.001343,-0.015625,0.003906,-0.003906,16.171674,,,
18624203000,0.999756,-0.01416,0.018494,-0.001343,0.023438,0.003906,-0.003906,16.182511,,,
18642978000,0.999756,-0.01416,0.018494,-0.001343,0.023438,0.003906,0.035156,16.201286,,,
18663494000,0.999756,-0.01416,0.018494,-0.001343,-0.015625,0.003906,-0.003906,16.221802,,,
18688227000,0.999756,-0.01416,0.018494,-0.001343,-0.015625,0.003906,0.035156,16.246535,,,
18702707000,0.999756,-0.01416,0.018494,-0.001343,-0.015625,0.003906,-0.003906,16.261015,2.9,3.81,1.57
18723426000,0.999756,-0.01416,0.018494,-0.001343,0.023438,0.003906,-0.003906,16.281734,,,
18753243000,0.999756,-0.01416,0.018494,-0.001343,0.023438,0.003906,-0.003906,16.311551,,,
18762889000,0.999756,-0.01416,0.018494,-0.001343,0.023438,0.003906,0.035156,16.321197,,,
18782848000,0.999756,-0.01416,0.018494,-0.001343,0.023438,0.003906,-0.003906,16.341156,,,
18812584000,0.999756,-0.01416,0.018494,-0.001343,0.023438,-0.03125,-0.003906,16.370892,,,
18822557000,0.999756,-0.01416,0.018494,-0.001343,-0.015625,0.003906,-0.003906,16.380865,,,
18842780000,0.999756,-0.01416,0.018494,-0.001343,-0.015625,0.003906,-0.003906,16.401088,,,
18862631000,0.999756,-0.01416,0.018494,-0.001343,0.023438,-0.03125,-0.003906,16.420939,,,
18883919000,0.999756,-0.01416,0.018494,-0.001343,-0.015625,0.003906,0.035156,16.442227,,,
18908269000,0.999756,-0.01416,0.018494,-0.001343,-0.015625,-0.03125,-0.003906,16.466577,2.87,3.81,1.59
18923267000,0.999756,-0.01416,0.018494,-0.001343,0.023438,0.003906,-0.003906,16.481575,,,
18949149000,0.999756,-0.01416,0.018494,-0.001343,0.023438,0.003906,-0.003906,16.507457,,,
18961969000,0.999756,-0.01416,0.018494,-0.001343,0.664062,-0.03125,0.003906,16.520277,,,
18982376000,0.999756,-0.01416,0.018433,-0.001343,0.421875,-0.03125,0.078125,16.540684,,,
19011848000,0.999756,-0.014282,0.018494,-0.001343,0.816406,-0.03125,-0.042969,16.570156,,,
19023936000,0.999756,-0.01416,0.018494,-0.001404,0.535156,0.121094,0.070312,16.582244,,,
19042154000,0.999756,-0.014282,0.018494,-0.001404,0.234375,0.042969,0.003906,16.600462,,,
19071986000,0.999756,-0.014282,0.018494,-0.001404,0.011719,0.121094,0.195312,16.630294,,,
19081905000,0.999695,-0.014404,0.018494,-0.001404,0.425781,0.003906,0.15625,16.640213,,,
19102174000,0.999695,-0.014343,0.018494,-0.001465,0.257812,-0.070312,0.078125,16.660482,2.88,3.81,1.56
19125524000,0.999695,-0.014526,0.018555,-0.001465,-0.066406,0.089844,-0.113281,16.683832,,,
19151723000,0.999695,-0.014587,0.018616,-0.001526,0.257812,-0.054688,-0.121094,16.710031,,,
19161787000,0.999695,-0.014648,0.018677,-0.001526,-0.578125,-0.054688,0.1875,16.720095,,,
19182782000,0.999695,-0.014648,0.018677,-0.001526,-0.011719,-0.015625,-0.195312,16.74109,,,
19202430000,0.999695,-0.014648,0.018616,-0.001526,-0.472656,0.136719,-0.273438,16.760738,,,
19232525000,0.999695,-0.015015,0.018616,-0.001587,-0.089844,-0.015625,-0.042969,16.790833,,,
19241576000,0.999695,-0.015076,0.018555,-0.001587,-0.050781,0.21875,-0.386719,16.799884,,,
19262094000,0.999695,-0.015137,0.018616,-0.001587,0.066406,-0.085938,0.339844,16.820402,,,
19282089000,0.999695,-0.015198,0.018616,-0.001648,0.714844,-0.085938,-0.3125,16.840397,,,
19317648000,0.999695,-0.015259,0.018616,-0.001709,0.21875,-0.085938,-0.464844,16.875956,2.86,3.82,1.58
19331218000,0.999695,-0.015076,0.018372,-0.001709,0.027344,-0.164062,-0.121094,16.889526,,,
19351971000,0.999695,-0.015259,0.018494,-0.001709,-0.210938,-0.007812,0.035156,16.910279,,,
19361684000,0.999695,-0.014954,0.018372,-0.00177,0.140625,0.027344,0.035156,16.919992,,,
19382089000,0.999695,-0.014832,0.018311,-0.001831,-0.066406,0.066406,0.492188,16.940397,,,
19402400000,0.999695,-0.014648,0.01825,-0.001831,-0.449219,0.066406,-0.003906,16.960708,,,
19433870000,0.999695,-0.014709,0.018311,-0.001892,-0.5625,0.058594,-0.195312,16.992178,,,
19447080000,0.999695,-0.014893,0.018372,-0.001892,-0.71875,-0.09375,0.035156,17.005388,,,
19461592000,0.999695,-0.014648,0.01825,-0.001953,-0.519531,-0.246094,-0.121094,17.0199,,,
19481746000,0.999756,-0.014526,0.018127,-0.002014,-0.441406,-0.132812,0.035156,17.040054,,,
19511951000,0.999695,-0.014832,0.018188,-0.002014,-1.398438,-0.046875,-0.351562,17.070259,2.87,3.83,1.62
19520751000,0.999695,-0.014893,0.01825,-0.002014,-1.359375,0.066406,0.261719,17.079059,,,
19541695000,0.999695,-0.014771,0.018188,-0.002075,-1.550781,-0.007812,-0.351562,17.100003,,,
19570598000,0.999695,-0.014648,0.018188,-0.002014,-0.664062,0.066406,-0.042969,17.128906,,,
19580499000,0.999695,-0.014709,0.018188,-0.002014,-0.625,-0.015625,-0.003906,17.138807,,,
19601696000,0.999695,-0.014709,0.01825,-0.002075,-0.777344,0.019531,-0.003906,17.160004,,,
19621646000,0.999695,-0.014832,0.01825,-0.002014,-0.625,0.019531,-0.082031,17.179954,,,
19650069000,0.999695,-0.014771,0.01825,-0.002075,-0.464844,-0.007812,-0.003906,17.208377,,,
19660331000,0.999695,-0.014771,0.01825,-0.002075,-0.503906,-0.007812,0.035156,17.218639,,,
19681458000,0.999695,-0.014709,0.01825,-0.002075,-0.578125,0.027344,-0.042969,17.239766,,,
19701697000,0.999695,-0.014709,0.01825,-0.002075,-0.148438,-0.007812,0.035156,17.260005,2.84,3.81,1.63
19729910000,0.999695,-0.014709,0.01825,-0.002136,-0.1875,-0.015625,-0.003906,17.288218,,,
19753094000,0.999695,-0.014709,0.01825,-0.002136,-0.257812,0.105469,-0.082031,17.311402,,,
19760498000,0.999695,-0.014771,0.018188,-0.002136,-0.179688,0.066406,-0.003906,17.318806,,,
19789638000,0.999695,-0.014709,0.018188,-0.002136,-0.179688,0.019531,-0.003906,17.347946,,,
19800394000,0.999695,-0.014771,0.018188,-0.002136,-0.21875,0.027344,-0.003906,17.358702,,,
19821673000,0.999695,-0.014771,0.018188,-0.002136,-0.140625,0.027344,-0.003906,17.379981,,,
19849476000,0.999695,-0.014771,0.018127,-0.002136,-0.171875,0.027344,-0.003906,17.407784,,,
19861226000,0.999695,-0.014771,0.018127,-0.002136,-0.171875,-0.007812,-0.003906,17.419534,,,
19881437000,0.999695,-0.014771,0.018127,-0.002136,-0.132812,-0.007812,0.035156,17.439745,,,
19909773000,0.999695,-0.014771,0.018127,-0.002136,-0.164062,0.027344,-0.003906,17.468081,2.86,3.8,1.64
19925861000,0.999695,-0.014771,0.018127,-0.002136,-0.125,0.027344,0.035156,17.484169,,,
19949675000,0.999695,-0.014771,0.018066,-0.002136,-0.164062,0.027344,-0.003906,17.507983,,,
19969890000,0.999695,-0.014771,0.018066,-0.002136,0.0625,-0.015625,0.027344,17.528198,,,
19980324000,0.999695,-0.014771,0.018066,-0.002136,0.0625,0.019531,-0.011719,17.538632,,,
20009770000,0.999695,-0.014771,0.018127,-0.002136,0.0625,0.019531,-0.011719,17.568078,,,
20029481000,0.999695,-0.014771,0.018127,-0.002136,0.015625,-0.015625,-0.011719,17.587789,,,
20040264000,0.999695,-0.014771,0.018127,-0.002136,0.015625,-0.015625,-0.011719,17.598572,,,
20070097000,0.999695,-0.014771,0.018127,-0.002136,0.015625,-0.015625,-0.011719,17.628405,,,
20080150000,0.999695,-0.014771,0.018127,-0.002136,0.054688,0.019531,-0.011719,17.638458,,,
20115686000,0.999695,-0.014771,0.018127,-0.002136,0.007812,0.019531,-0.011719,17.673994,2.86,3.82,1.62
20129248000,0.999695,-0.014771,0.018127,-0.002136,0.007812,0.019531,0.027344,17.687556,,,
20159103000,0.999695,-0.014709,0.018127,-0.002197,0.046875,-0.015625,-0.011719,17.717411,,,
20178775000,0.999695,-0.014709,0.018127,-0.002197,0.007812,0.019531,-0.011719,17.737083,,,
20196883000,0.999695,-0.014709,0.018127,-0.002197,0.007812,-0.015625,-0.003906,17.755191,,,
20208987000,0.999695,-0.014709,0.018127,-0.002197,0.0,-0.015625,-0.003906,17.767295,,,
20229192000,0.999695,-0.014709,0.018127,-0.002197,0.039062,-0.015625,-0.003906,17.7875,,,
20255705000,0.999695,-0.014771,0.018066,-0.002197,0.0,-0.015625,-0.003906,17.814013,,,
20269650000,0.999695,-0.014771,0.018127,-0.002197,0.0,0.019531,0.035156,17.827958,,,
20295873000,0.999695,-0.014771,0.018127,-0.002197,0.0,-0.015625,-0.003906,17.854181,2.84,3.77,1.63
20309243000,0.999695,-0.014709,0.018127,-0.002197,0.039062,-0.015625,0.035156,17.867551,,,
20329118000,0.999695,-0.014709,0.018127,-0.002197,0.0,-0.015625,0.027344,17.887426,,,
20349053000,0.999756,-0.014709,0.018127,-0.002197,0.0,-0.015625,-0.011719,17.907361,,,
20368747000,0.999756,-0.014709,0.018127,-0.002197,0.0,-0.015625,-0.011719,17.927055,,,
20391761000,0.999756,-0.014709,0.018066,-0.002258,0.0,0.019531,-0.011719,17.950069,,,
20409450000,0.999756,-0.014709,0.018066,-0.002258,0.0,0.019531,-0.011719,17.967758,,,
20429849000,0.999756,-0.014709,0.018127,-0.002258,0.0,0.019531,-0.003906,17.988157,,,
20456060000,0.999695,-0.014709,0.018127,-0.002258,0.0,-0.015625,-0.003906,18.014368,,,
20468550000,0.999695,-0.014771,0.018066,-0.002258,-0.007812,0.019531,-0.003906,18.026858,,,
20488946000,0.999695,-0.014771,0.018066,-0.002258,0.03125,0.019531,0.035156,18.047254,,,
20510879000,0.999695,-0.014771,0.018066,-0.002258,-0.007812,-0.015625,-0.003906,18.069187,2.81,3.81,1.62
20528489000,0.999695,-0.014771,0.018127,-0.002258,-0.007812,0.019531,-0.003906,18.086797,,,
20548374000,0.999695,-0.014771,0.018066,-0.002258,-0.007812,-0.015625,-0.003906,18.106682,,,
20568200000,0.999695,-0.014771,0.018066,-0.002258,0.03125,0.019531,-0.003906,18.126508,,,
20592576000,0.999695,-0.014771,0.018066,-0.002319,-0.007812,-0.015625,-0.003906,18.150884,,,
20608248000,0.999695,-0.014771,0.018066,-0.002319,-0.007812,0.019531,-0.003906,18.166556,,,
20627749000,0.999695,-0.014771,0.018066,-0.002319,-0.007812,0.011719,-0.003906,18.186057,,,
20647972000,0.999695,-0.014771,0.018066,-0.002319,-0.046875,-0.023438,-0.003906,18.20628,,,
20677868000,0.999695,-0.014771,0.018066,-0.002319,0.03125,0.011719,-0.003906,18.236176,,,
20687757000,0.999695,-0.014771,0.018066,-0.002319,0.03125,0.011719,-0.003906,18.246065,,,
20708402000,0.999695,-0.014771,0.018127,-0.002319,-0.007812,-0.023438,-0.003906,18.26671,2.85,3.81,1.62
20727037000,0.999695,-0.014771,0.018127,-0.002319,0.03125,-0.023438,-0.003906,18.285345,,,
20748460000,0.999695,-0.014771,0.018127,-0.002319,-0.007812,-0.023438,-0.003906,18.306768,,,
20767417000,0.999695,-0.014771,0.018127,-0.002319,-0.007812,0.011719,-0.003906,18.325725,,,
20788139000,0.999695,-0.014709,0.018127,-0.002319,0.03125,-0.023438,-0.003906,18.346447,,,
20807956000,0.999695,-0.014709,0.018127,-0.002319,-0.007812,0.011719,0.035156,18.366264,,,
20831168000,0.999695,-0.014709,0.018127,-0.002319,0.03125,0.011719,-0.003906,18.389476,,,
20853143000,0.999695,-0.014709,0.018127,-0.002319,0.03125,0.011719,0.035156,18.411451,,,
20866939000,0.999695,-0.014709,0.018127,-0.002319,-0.007812,-0.023438,-0.003906,18.425247,,,
20887360000,0.999695,-0.014709,0.018127,-0.002319,0.03125,0.011719,-0.003906,18.445668,,,
20907284000,0.999695,-0.014709,0.018127,-0.002319,-0.007812,0.011719,-0.003906,18.465592,2.85,3.81,1.63
20926889000,0.999695,-0.014709,0.018127,-0.002319,-0.007812,0.019531,-0.003906,18.485197,,,
20949489000,0.999695,-0.014709,0.018127,-0.002319,0.03125,-0.015625,-0.003906,18.507797,,,
20975507000,0.999695,-0.014709,0.018127,-0.002319,0.03125,0.019531,-0.003906,18.533815,,,
20986711000,0.999756,-0.014648,0.018127,-0.002319,0.03125,-0.015625,0.035156,18.545019,,,
21006922000,0.999695,-0.014709,0.018127,-0.002319,-0.007812,-0.015625,-0.003906,18.56523,,,
21030133000,0.999695,-0.014709,0.018127,-0.002319,-0.007812,-0.015625,-0.003906,18.588441,,,
21054493000,0.999695,-0.014709,0.018127,-0.002319,0.03125,0.019531,-0.003906,18.612801,,,
21066373000,0.999695,-0.014709,0.018127,-0.00238,-0.007812,-0.015625,0.035156,18.624681,,,
21086731000,0.999695,-0.014709,0.018127,-0.00238,-0.007812,0.019531,-0.003906,18.645039,,,
21110663000,0.999695,-0.014709,0.018127,-0.00238,-0.007812,-0.015625,-0.003906,18.668971,2.84,3.79,1.65
21127031000,0.999695,-0.014771,0.018066,-0.00238,-0.007812,0.019531,-0.042969,18.685339,,,
21146637000,0.999695,-0.014771,0.018066,-0.00238,-0.007812,0.019531,-0.003906,18.704945,,,
21167697000,0.999695,-0.014709,0.018066,-0.00238,-0.007812,-0.015625,-0.003906,18.726005,,,
21190977000,0.999695,-0.014709,0.018127,-0.002441,-0.007812,-0.015625,-0.003906,18.749285,,,
21206553000,0.999695,-0.014709,0.018066,-0.002441,-0.007812,-0.007812,-0.003906,18.764861,,,
21225878000,0.999695,-0.014709,0.018066,-0.002441,-0.007812,0.019531,-0.003906,18.784186,,,
21246429000,0.999695,-0.014709,0.018066,-0.002441,-0.007812,0.019531,-0.003906,18.804737,,,
21266610000,0.999756,-0.014709,0.018066,-0.00238,-0.007812,-0.015625,-0.003906,18.824918,,,
21286028000,0.999756,-0.014709,0.018066,-0.00238,0.03125,-0.015625,-0.003906,18.844336,,,
21316258000,0.999756,-0.014648,0.018066,-0.00238,-0.007812,-0.015625,-0.003906,18.874566,2.83,3.79,1.65
21325884000,0.999756,-0.014709,0.018066,-0.00238,-0.007812,0.019531,0.035156,18.884192,,,
21345727000,0.999756,-0.014709,0.018066,-0.00238,-0.007812,0.019531,-0.003906,18.904035,,,
21365670000,0.999756,-0.014709,0.018066,-0.00238,0.03125,-0.015625,-0.003906,18.923978,,,
21391709000,0.999756,-0.014709,0.018066,-0.00238,0.023438,-0.015625,-0.003906,18.950017,,,
21406226000,0.999756,-0.014709,0.018066,-0.002441,-0.015625,0.019531,0.035156,18.964534,,,
21425935000,0.999756,-0.014709,0.018066,-0.002441,-0.015625,0.019531,-0.003906,18.984243,,,
21455782000,0.999756,-0.014709,0.018066,-0.002441,-0.015625,0.019531,0.035156,19.01409,,,
21472743000,0.999756,-0.014709,0.018066,-0.002441,-0.015625,-0.015625,0.035156,19.031051,,,
21485047000,0.999756,-0.014709,0.018066,-0.002441,-0.015625,-0.015625,-0.003906,19.043355,,,
21505986000,0.999756,-0.014709,0.018066,-0.002441,-0.015625,0.019531,-0.011719,19.064294,2.84,3.82,1.63
21535512000,0.999756,-0.014709,0.018066,-0.002441,0.023438,0.019531,-0.011719,19.09382,,,
21545207000,0.999756,-0.014709,0.018066,-0.002441,-0.015625,0.019531,-0.011719,19.103515,,,
21567566000,0.999756,-0.014709,0.018066,-0.002441,0.023438,-0.023438,-0.011719,19.125874,,,
21594648000,0.999756,-0.014709,0.018066,-0.002441,0.023438,0.011719,0.027344,19.152956,,,
21605316000,0.999756,-0.014709,0.018066,-0.002441,-0.015625,-0.023438,0.027344,19.163624,,,
21624918000,0.999756,-0.014709,0.018066,-0.002441,-0.015625,0.011719,-0.011719,19.183226,,,
21644745000,0.999756,-0.014709,0.018066,-0.002441,0.023438,-0.023438,-0.011719,19.203053,,,
21670998000,0.999756,-0.014709,0.018066,-0.002441,-0.015625,0.011719,-0.011719,19.229306,,,
21685544000,0.999756,-0.014709,0.018066,-0.002441,-0.015625,-0.023438,-0.011719,19.243852,,,
21704654000,0.999756,-0.014709,0.018066,-0.002441,0.023438,0.011719,-0.050781,19.262962,2.85,3.76,1.63
21725377000,0.999756,-0.014709,0.018066,-0.002441,-0.015625,-0.023438,-0.011719,19.283685,,,
21754859000,0.999756,-0.014709,0.018066,-0.002441,-0.015625,0.011719,0.027344,19.313167,,,
21765369000,0.999756,-0.014709,0.018066,-0.002441,-0.015625,0.011719,-0.011719,19.323677,,,
21786739000,0.999756,-0.014709,0.018066,-0.002441,-0.015625,0.011719,0.027344,19.345047,,,
21805382000,0.999756,-0.014709,0.018066,-0.002441,-0.015625,-0.023438,-0.011719,19.36369,,,
21829201000,0.999756,-0.014709,0.018066,-0.002441,0.023438,0.011719,-0.011719,19.387509,,,
21844469000,0.999756,-0.014709,0.018066,-0.002441,0.023438,-0.023438,-0.011719,19.402777,,,
21864140000,0.999756,-0.014709,0.018066,-0.002441,-0.015625,-0.023438,0.027344,19.422448,,,
21884412000,0.999756,-0.014709,0.018066,-0.002441,-0.015625,-0.023438,-0.011719,19.44272,,,
21910926000,0.999756,-0.014709,0.018066,-0.002441,-0.015625,-0.023438,0.027344,19.469234,2.86,3.79,1.67
21924709000,0.999756,-0.014709,0.018066,-0.002441,-0.015625,-0.023438,-0.011719,19.483017,,,
21944135000,0.999756,-0.014709,0.018066,-0.002441,-0.015625,0.011719,-0.011719,19.502443,,,
21973979000,0.999756,-0.014709,0.018066,-0.002441,-0.015625,-0.023438,0.027344,19.532287,,,
21984212000,0.999756,-0.014709,0.018066,-0.002441,-0.015625,-0.023438,-0.011719,19.54252,,,
22004955000,0.999756,-0.014709,0.018066,-0.002441,-0.015625,0.019531,-0.011719,19.563263,,,
22033720000,0.999756,-0.014709,0.018066,-0.002441,0.023438,0.019531,-0.011719,19.592028,,,
22044184000,0.999756,-0.014709,0.018066,-0.002441,0.023438,-0.015625,-0.011719,19.602492,,,
22063990000,0.999756,-0.014709,0.018066,-0.002441,-0.015625,-0.015625,-0.011719,19.622298,,,
22084555000,0.999756,-0.014709,0.018066,-0.002441,0.023438,0.019531,-0.011719,19.642863,,,
22113331000,0.999756,-0.014709,0.018066,-0.002441,0.023438,-0.015625,-0.003906,19.671639,2.86,3.82,1.61
22123951000,0.999756,-0.014709,0.018066,-0.002441,-0.015625,0.019531,-0.003906,19.682259,,,
22143874000,0.999756,-0.014709,0.018066,-0.002441,-0.015625,-0.015625,-0.003906,19.702182,,,
22163414000,0.999756,-0.014709,0.018066,-0.002441,-0.015625,-0.015625,-0.003906,19.721722,,,
22192926000,0.999756,-0.014709,0.018066,-0.002441,-0.015625,-0.015625,-0.003906,19.751234,,,
22203432000,0.999756,-0.014709,0.018066,-0.002441,-0.015625,0.019531,0.035156,19.76174,,,
22223535000,0.999756,-0.014709,0.018066,-0.002441,-0.015625,0.019531,-0.003906,19.781843,,,
22243068000,0.999756,-0.014709,0.018066,-0.002441,-0.015625,-0.015625,-0.003906,19.801376,,,
22272806000,0.999756,-0.014709,0.018066,-0.002441,-0.015625,-0.015625,0.035156,19.831114,,,
22282792000,0.999756,-0.014709,0.018066,-0.002441,-0.015625,0.019531,-0.003906,19.8411,,,
22303487000,0.999756,-0.014709,0.018066,-0.002441,0.023438,-0.015625,-0.003906,19.861795,2.85,3.8,1.64
22329331000,0.999756,-0.014709,0.018066,-0.002441,-0.015625,0.019531,0.035156,19.887639,,,
22344168000,0.999756,-0.014709,0.018066,-0.002441,-0.015625,-0.015625,-0.003906,19.902476,,,
22363468000,0.999756,-0.014709,0.018066,-0.002441,-0.015625,0.019531,-0.003906,19.921776,,,
22383899000,0.999756,-0.014709,0.018066,-0.002441,-0.015625,0.011719,-0.003906,19.942207,,,
22412599000,0.999756,-0.014709,0.018066,-0.002441,0.023438,-0.023438,-0.003906,19.970907,,,
22422636000,0.999756,-0.014709,0.018066,-0.002441,-0.015625,0.011719,0.035156,19.980944,,,
22443467000,0.999756,-0.014709,0.018066,-0.002441,-0.015625,-0.015625,-0.003906,20.001775,,,
22462562000,0.999756,-0.014709,0.018066,-0.002441,-0.015625,0.011719,-0.003906,20.02087,,,
22487700000,0.999756,-0.014709,0.018066,-0.002441,0.023438,-0.015625,-0.003906,20.046008,,,
22505164000,0.999756,-0.014709,0.018066,-0.002441,0.023438,0.019531,-0.003906,20.063472,2.84,3.78,1.64
22522655000,0.999756,-0.014709,0.018066,-0.002441,-0.015625,-0.015625,0.035156,20.080963,,,
22552217000,0.999756,-0.014709,0.018066,-0.002441,-0.015625,-0.015625,-0.003906,20.110525,,,
22562228000,0.999756,-0.014709,0.018066,-0.002441,-0.015625,0.019531,-0.003906,20.120536,,,
22582497000,0.999756,-0.014709,0.018066,-0.002441,-0.015625,0.019531,-0.003906,20.140805,,,
22613121000,0.999756,-0.014709,0.018066,-0.002441,-0.015625,-0.015625,-0.003906,20.171429,,,
22622483000,0.999756,-0.014709,0.018066,-0.002441,-0.015625,0.019531,-0.003906,20.180791,,,
22642263000,0.999756,-0.014709,0.018066,-0.002441,-0.007812,-0.015625,-0.003906,20.200571,,,
22662979000,0.999756,-0.014709,0.018066,-0.002441,-0.007812,-0.015625,-0.003906,20.221287,,,
22691660000,0.999756,-0.014709,0.018066,-0.002441,-0.007812,-0.015625,0.035156,20.249968,,,
22702772000,0.999756,-0.014709,0.018066,-0.002441,-0.007812,0.019531,-0.003906,20.26108,2.84,3.81,1.63
22722706000,0.999756,-0.014709,0.018066,-0.002441,-0.007812,0.019531,0.035156,20.281014,,,
22742408000,0.999756,-0.014709,0.018066,-0.002441,0.03125,0.019531,0.035156,20.300716,,,
22762450000,0.999756,-0.014709,0.018066,-0.002441,-0.007812,-0.023438,-0.003906,20.320758,,,
22782713000,0.999756,-0.014709,0.018066,-0.002441,-0.007812,0.011719,0.035156,20.341021,,,
22801865000,0.999756,-0.014709,0.018066,-0.002441,-0.007812,0.011719,-0.003906,20.360173,,,
22822571000,0.999756,-0.014709,0.018066,-0.002441,-0.007812,-0.023438,-0.003906,20.380879,,,
22842351000,0.999756,-0.014709,0.018066,-0.002441,-0.007812,-0.023438,-0.003906,20.400659,,,
22862979000,0.999756,-0.014709,0.018066,-0.002441,-0.007812,0.011719,-0.003906,20.421287,,,
22891240000,0.999756,-0.014709,0.018066,-0.002441,-0.007812,0.011719,-0.003906,20.449548,,,
22901076000,0.999756,-0.014709,0.018066,-0.002441,0.03125,0.011719,-0.003906,20.459384,2.84,3.8,1.65
22922136000,0.999756,-0.014709,0.018066,-0.002441,0.03125,0.011719,-0.003906,20.480444,,,
22950970000,0.999756,-0.014709,0.018066,-0.002441,-0.007812,0.011719,-0.003906,20.509278,,,
22967312000,0.999756,-0.014709,0.018066,-0.002441,-0.007812,0.011719,0.035156,20.52562,,,
22981982000,0.999756,-0.014709,0.018005,-0.002441,0.03125,-0.023438,0.035156,20.54029,,,
23002045000,0.999756,-0.014709,0.018005,-0.002441,0.03125,-0.023438,-0.003906,20.560353,,,
23030876000,0.999756,-0.014709,0.018005,-0.002441,0.03125,0.011719,0.035156,20.589184,,,
23041409000,0.999756,-0.014709,0.018005,-0.002441,-0.007812,-0.023438,-0.003906,20.599717,,,
23061673000,0.999756,-0.014709,0.018005,-0.00238,-0.007812,-0.023438,-0.003906,20.619981,,,
23081807000,0.999756,-0.014709,0.018005,-0.002441,-0.007812,0.011719,-0.003906,20.640115,,,
23101912000,0.999756,-0.014709,0.018005,-0.002441,-0.007812,-0.023438,-0.003906,20.66022,2.84,3.78,1.65
23130760000,0.999756,-0.014648,0.018066,-0.002441,-0.007812,-0.023438,-0.003906,20.689068,,,
23140801000,0.999756,-0.014648,0.018005,-0.002441,-0.007812,0.011719,-0.003906,20.699109,,,
23162402000,0.999756,-0.014648,0.018005,-0.00238,-0.007812,-0.023438,0.035156,20.72071,,,
23190546000,0.999756,-0.014648,0.018005,-0.002441,-0.007812,0.019531,-0.003906,20.748854,,,
23200287000,0.999756,-0.014648,0.018005,-0.002441,0.03125,-0.015625,-0.003906,20.758595,,,
23230179000,0.999756,-0.014648,0.018005,-0.002441,0.03125,-0.015625,-0.003906,20.788487,,,
23247514000,0.999756,-0.014648,0.018066,-0.002441,-0.007812,-0.015625,-0.003906,20.805822,,,
23261673000,0.999756,-0.014648,0.018066,-0.002441,-0.007812,-0.015625,-0.003906,20.819981,,,
23281406000,0.999756,-0.014648,0.018066,-0.002441,-0.007812,-0.015625,0.070312,20.839714,,,
23301970000,0.999756,-0.014648,0.018127,-0.00238,0.0,0.019531,-0.003906,20.860278,2.84,3.81,1.64
23331146000,0.999756,-0.014648,0.018066,-0.002441,0.078125,-0.015625,0.035156,20.889454,,,
23340763000,0.999756,-0.014648,0.018066,-0.002441,-0.007812,0.019531,-0.003906,20.899071,,,
23361690000,0.999756,-0.014709,0.018066,-0.002441,-0.007812,0.019531,0.035156,20.919998,,,
23383065000,0.999695,-0.014709,0.018127,-0.002441,0.03125,-0.015625,-0.003906,20.941373,,,
23407711000,0.999695,-0.014709,0.018127,-0.00238,0.070312,-0.015625,0.035156,20.966019,,,
23421304000,0.999695,-0.014832,0.018127,-0.00238,0.863281,-0.015625,0.035156,20.979612,,,
23441724000,0.999695,-0.014832,0.018127,-0.00238,1.003906,0.019531,-0.003906,21.000032,,,
23469395000,0.999695,-0.014893,0.018127,-0.00238,0.265625,-0.015625,-0.160156,21.027703,,,
23480177000,0.999695,-0.014954,0.018066,-0.00238,0.34375,0.175781,-0.121094,21.038485,,,
23516397000,0.999695,-0.014832,0.018066,-0.002441,0.097656,-0.015625,0.035156,21.074705,2.83,3.82,1.67
23529073000,0.999756,-0.014648,0.018127,-0.002441,0.136719,-0.054688,-0.121094,21.087381,,,
23540309000,0.999695,-0.014709,0.018127,-0.002441,-0.054688,0.058594,-0.128906,21.098617,,,
23561668000,0.999695,-0.014709,0.018127,-0.002441,-0.316406,0.058594,-0.242188,21.119976,,,
23589322000,0.999756,-0.014648,0.018127,-0.002441,0.25,0.058594,-0.167969,21.14763,,,
23600250000,0.999695,-0.014771,0.018066,-0.002502,0.597656,0.019531,0.21875,21.158558,,,
23637938000,0.999756,-0.014709,0.017944,-0.002502,0.351562,-0.132812,-0.050781,21.196246,,,
23649132000,0.999695,-0.014832,0.018127,-0.002502,0.234375,-0.054688,0.179688,21.20744,,,
23669171000,0.999695,-0.014893,0.018066,-0.002563,0.074219,0.097656,-0.386719,21.227479,,,
23680085000,0.999695,-0.015015,0.018127,-0.002563,0.226562,-0.046875,-0.195312,21.238393,,,
23713651000,0.999695,-0.014893,0.018066,-0.002625,0.0,-0.015625,0.101562,21.271959,2.85,3.76,1.63
23720311000,0.999695,-0.014893,0.018066,-0.002625,-0.660156,0.058594,0.1875,21.278619,,,
23749277000,0.999695,-0.014893,0.018005,-0.002747,-0.125,0.175781,-0.3125,21.307585,,,
23768635000,0.999695,-0.014954,0.018005,-0.002747,-0.777344,0.019531,0.035156,21.326943,,,
23792580000,0.999695,-0.014893,0.018066,-0.002747,-0.402344,-0.046875,0.109375,21.350888,,,
23808688000,0.999695,-0.014771,0.018005,-0.002808,-0.09375,0.019531,-0.121094,21.366996,,,
23829508000,0.999756,-0.014465,0.017883,-0.002808,-0.207031,0.019531,0.261719,21.387816,,,
23848681000,0.999756,-0.014343,0.017822,-0.002869,-0.402344,-0.101562,-0.082031,21.406989,,,
23860383000,0.999756,-0.014648,0.017944,-0.002869,-0.476562,0.203125,-0.003906,21.418691,,,
23888504000,0.999756,-0.014648,0.017944,-0.00293,-0.246094,-0.015625,0.109375,21.446812,,,
23908321000,0.999756,-0.014709,0.017883,-0.00293,-0.714844,-0.09375,0.148438,21.466629,2.92,3.75,1.67
23928940000,0.999756,-0.014709,0.017883,-0.00293,-1.058594,0.058594,0.1875,21.487248,,,
23953182000,0.999756,-0.014587,0.017944,-0.00293,-0.945312,0.175781,-0.042969,21.51149,,,
23968307000,0.999756,-0.014343,0.0177,-0.00293,-0.675781,-0.023438,0.117188,21.526615,,,
23991534000,0.999756,-0.014343,0.0177,-0.00293,-0.0625,-0.023438,-0.035156,21.549842,,,
24008038000,0.999756,-0.014343,0.017639,-0.00293,-0.292969,0.011719,0.003906,21.566346,,,
24028563000,0.999756,-0.014343,0.017639,-0.00293,-0.554688,0.011719,0.035156,21.586871,,,
24048685000,0.999756,-0.014343,0.017639,-0.00293,-0.09375,-0.023438,0.035156,21.606993,,,
24068507000,0.999756,-0.014343,0.017639,-0.00293,-0.09375,0.011719,0.035156,21.626815,,,
24088297000,0.999756,-0.014404,0.017639,-0.00293,-0.054688,-0.023438,0.003906,21.646605,,,
24114468000,0.999756,-0.014404,0.017639,-0.00293,-0.054688,0.011719,0.003906,21.672776,2.92,3.73,1.67
24127916000,0.999756,-0.014465,0.017639,-0.002869,0.019531,-0.023438,0.042969,21.686224,,,
24148776000,0.999756,-0.014526,0.017639,-0.002869,-0.054688,-0.023438,0.042969,21.707084,,,
24167691000,0.999756,-0.014526,0.017639,-0.00293,-0.171875,0.019531,0.003906,21.725999,,,
24188165000,0.999756,-0.014587,0.017639,-0.00293,0.136719,-0.015625,0.003906,21.746473,,,
24207919000,0.999756,-0.014587,0.017639,-0.00293,0.441406,0.019531,0.042969,21.766227,,,
24227315000,0.999756,-0.014587,0.017578,-0.00293,-0.054688,0.058594,0.003906,21.785623,,,
24252291000,0.999756,-0.014526,0.017517,-0.00293,-0.371094,0.058594,-0.082031,21.810599,,,
24267902000,0.999756,-0.014526,0.017517,-0.002991,-0.601562,0.019531,0.035156,21.82621,,,
24287442000,0.999756,-0.014526,0.017517,-0.002991,-0.054688,-0.015625,0.035156,21.84575,,,
24307275000,0.999756,-0.014526,0.017517,-0.002991,-0.054688,0.019531,-0.003906,21.865583,2.92,3.72,1.66
24330558000,0.999756,-0.014465,0.017517,-0.00293,0.402344,0.019531,0.035156,21.888866,,,
24348003000,0.999756,-0.014404,0.017456,-0.00293,0.367188,0.011719,-0.042969,21.906311,,,
24367578000,0.999756,-0.014465,0.017395,-0.002991,-0.476562,0.050781,-0.042969,21.925886,,,
24387473000,0.999756,-0.014587,0.017395,-0.002991,-0.515625,0.019531,-0.003906,21.945781,,,
24417190000,0.999756,-0.014526,0.017395,-0.002991,-0.207031,0.136719,-0.160156,21.975498,,,
24427023000,0.999756,-0.014526,0.017334,-0.003052,-0.015625,-0.09375,0.148438,21.985331,,,
24449155000,0.999756,-0.014526,0.017334,-0.002991,-0.09375,0.019531,-0.003906,22.007463,,,
24467035000,0.999756,-0.014526,0.017334,-0.002991,-0.09375,0.019531,0.035156,22.025343,,,
24489260000,0.999756,-0.014526,0.017334,-0.002991,-0.054688,0.019531,-0.003906,22.047568,,,
24507560000,0.999756,-0.014465,0.017334,-0.002991,-0.054688,-0.015625,0.035156,22.065868,2.92,3.71,1.67
24526547000,0.999756,-0.014526,0.017334,-0.002991,-0.046875,0.019531,-0.003906,22.084855,,,
24547141000,0.999756,-0.014465,0.017334,-0.002991,-0.085938,0.019531,0.035156,22.105449,,,
24577129000,0.999756,-0.014526,0.017334,-0.002991,-0.046875,0.019531,-0.003906,22.135437,,,
24586480000,0.999756,-0.014526,0.017273,-0.003052,-0.046875,0.019531,0.035156,22.144788,,,
24606406000,0.999756,-0.014526,0.017273,-0.003052,-0.085938,0.019531,-0.003906,22.164714,,,
24626542000,0.999756,-0.014526,0.017273,-0.003052,-0.046875,0.019531,0.035156,22.18485,,,
24656870000,0.999756,-0.014465,0.017273,-0.003052,-0.046875,0.019531,-0.003906,22.215178,,,
24673697000,0.999756,-0.014465,0.017273,-0.003052,-0.085938,0.019531,-0.042969,22.232005,,,
24686934000,0.999756,-0.014404,0.017273,-0.003052,-0.046875,-0.023438,-0.003906,22.245242,,,
24705981000,0.999756,-0.014404,0.017273,-0.003113,-0.046875,0.011719,-0.003906,22.264289,2.93,3.74,1.67
24727986000,0.999756,-0.014404,0.017273,-0.003113,-0.046875,0.011719,-0.003906,22.286294,,,
24752468000,0.999756,-0.014465,0.017273,-0.003113,0.015625,-0.023438,-0.003906,22.310776,,,
24766714000,0.999756,-0.014465,0.017273,-0.003113,-0.023438,0.011719,-0.003906,22.325022,,,
24785957000,0.999756,-0.014465,0.017273,-0.003113,0.054688,-0.0625,0.070312,22.344265,,,
24806422000,0.999756,-0.014465,0.017273,-0.003113,0.015625,0.011719,0.035156,22.36473,,,
24833324000,0.999756,-0.014465,0.017273,-0.003113,0.015625,0.011719,0.035156,22.391632,,,
24846618000,0.999756,-0.014465,0.017273,-0.003113,0.015625,-0.023438,-0.003906,22.404926,,,
24865919000,0.999756,-0.014465,0.017273,-0.003113,0.015625,0.011719,0.035156,22.424227,,,
24896329000,0.999756,-0.014465,0.017273,-0.003113,0.015625,0.019531,-0.003906,22.454637,,,
24909302000,0.999756,-0.014465,0.017273,-0.003113,0.015625,0.019531,-0.003906,22.46761,2.92,3.73,1.66
24925563000,0.999756,-0.014465,0.017273,-0.003113,-0.023438,0.011719,-0.003906,22.483871,,,
24945685000,0.999756,-0.014465,0.017212,-0.003113,0.015625,0.011719,0.035156,22.503993,,,
24966525000,0.999756,-0.014526,0.017212,-0.003113,0.007812,0.019531,-0.003906,22.524833,,,
24992457000,0.999756,-0.014526,0.017212,-0.003113,-0.039062,0.019531,-0.003906,22.550765,,,
25005458000,0.999756,-0.014526,0.017212,-0.003113,0.015625,0.019531,0.035156,22.563766,,,
25025903000,0.999756,-0.014465,0.017212,-0.003113,0.007812,0.019531,-0.003906,22.584211,,,
25046445000,0.999756,-0.014526,0.017212,-0.003113,0.007812,0.011719,-0.011719,22.604753,,,
25071577000,0.999756,-0.014526,0.017212,-0.003113,-0.03125,0.011719,-0.003906,22.629885,,,
25085126000,0.999756,-0.014526,0.017212,-0.003113,0.007812,0.011719,-0.003906,22.643434,,,
25105508000,0.999756,-0.014526,0.017212,-0.003113,-0.023438,0.011719,-0.003906,22.663816,2.92,3.75,1.65
25130114000,0.999756,-0.014587,0.017212,-0.003113,0.015625,-0.023438,0.035156,22.688422,,,
25145143000,0.999756,-0.014587,0.017212,-0.003113,0.0,0.011719,0.035156,22.703451,,,
25167142000,0.999756,-0.014587,0.017212,-0.003113,0.007812,0.011719,-0.003906,22.72545,,,
25184948000,0.999756,-0.014587,0.017212,-0.003052,0.0,0.011719,-0.003906,22.743256,,,
25215731000,0.999756,-0.014587,0.017212,-0.003113,0.0,0.011719,-0.003906,22.774039,,,
25224778000,0.999756,-0.014587,0.017212,-0.003052,0.0,0.011719,-0.003906,22.783086,,,
25244812000,0.999756,-0.014587,0.017212,-0.003052,0.0,0.011719,-0.003906,22.80312,,,
25264547000,0.999756,-0.014587,0.017212,-0.003113,0.0,0.003906,-0.003906,22.822855,,,
25295708000,0.999756,-0.014587,0.017151,-0.003052,-0.03125,0.003906,-0.003906,22.854016,,,
25311202000,0.999756,-0.014587,0.017212,-0.003052,0.007812,0.003906,-0.003906,22.86951,2.91,3.76,1.67
25324969000,0.999756,-0.014587,0.017151,-0.003052,0.007812,0.003906,-0.003906,22.883277,,,
25344895000,0.999756,-0.014587,0.017151,-0.003052,-0.03125,0.003906,-0.003906,22.903203,,,
25366642000,0.999756,-0.014587,0.017212,-0.003052,0.007812,0.003906,-0.003906,22.92495,,,
25390767000,0.999756,-0.014587,0.017151,-0.003113,0.007812,0.003906,-0.003906,22.949075,,,
25404710000,0.999756,-0.014587,0.017151,-0.003113,-0.03125,0.003906,-0.003906,22.963018,,,
25424097000,0.999756,-0.014587,0.017212,-0.003113,-0.03125,0.003906,0.035156,22.982405,,,
25445249000,0.999756,-0.014587,0.017212,-0.003113,0.007812,0.003906,0.035156,23.003557,,,
25474244000,0.999756,-0.014587,0.017212,-0.003113,0.007812,-0.03125,-0.003906,23.032552,,,
25484630000,0.999756,-0.014587,0.017212,-0.003113,0.007812,0.003906,-0.003906,23.042938,,,
25503833000,0.999756,-0.014587,0.017212,-0.003113,0.007812,0.003906,0.035156,23.062141,2.91,3.8,1.67
25534258000,0.999756,-0.014587,0.017212,-0.003113,0.007812,0.003906,-0.003906,23.092566,,,
25550093000,0.999756,-0.014587,0.017212,-0.003113,-0.03125,-0.03125,-0.003906,23.108401,,,
25563939000,0.999756,-0.014587,0.017212,-0.003113,-0.03125,0.003906,0.035156,23.122247,,,
25584865000,0.999756,-0.014526,0.017212,-0.003113,0.007812,0.003906,-0.003906,23.143173,,,
25614314000,0.999756,-0.014526,0.017212,-0.003174,0.007812,-0.03125,-0.003906,23.172622,,,
25623823000,0.999756,-0.014526,0.017212,-0.003174,0.007812,-0.03125,-0.003906,23.182131,,,
25651082000,0.999756,-0.014587,0.017212,-0.003174,-0.03125,0.003906,-0.003906,23.20939,,,
25663877000,0.999756,-0.014526,0.017212,-0.003174,0.007812,0.003906,0.035156,23.222185,,,
25684675000,0.999756,-0.014526,0.017212,-0.003174,-0.03125,0.003906,-0.042969,23.242983,,,
25709195000,0.999756,-0.014587,0.017212,-0.003174,0.007812,0.003906,0.035156,23.267503,2.92,3.77,1.67
25723309000,0.999756,-0.014587,0.017212,-0.003174,-0.03125,-0.03125,-0.003906,23.281617,,,
25744332000,0.999756,-0.014587,0.017212,-0.003174,0.007812,0.003906,-0.003906,23.30264,,,
25763844000,0.999756,-0.014587,0.017212,-0.003174,0.007812,0.003906,-0.003906,23.322152,,,
25784292000,0.999756,-0.014648,0.017212,-0.003174,0.007812,0.003906,0.035156,23.3426,,,
25803633000,0.999756,-0.014648,0.017212,-0.003174,0.007812,0.003906,0.035156,23.361941,,,
25824438000,0.999756,-0.014648,0.017212,-0.003174,0.007812,-0.03125,-0.003906,23.382746,,,
25854101000,0.999756,-0.014648,0.017212,-0.003174,0.007812,0.003906,-0.003906,23.412409,,,
25863158000,0.999756,-0.014648,0.017212,-0.003174,0.007812,0.003906,-0.003906,23.421466,,,
25895155000,0.999756,-0.014709,0.017212,-0.003174,-0.03125,0.003906,-0.003906,23.453463,,,
25913462000,0.999756,-0.014709,0.017212,-0.003235,-0.03125,0.003906,-0.003906,23.47177,2.9,3.81,1.66
25930117000,0.999756,-0.014648,0.017212,-0.003235,-0.03125,0.003906,-0.003906,23.488425,,,
25943363000,0.999756,-0.014709,0.017273,-0.003235,0.015625,0.003906,-0.003906,23.501671,,,
25963608000,0.999756,-0.014648,0.017273,-0.003235,0.015625,-0.03125,0.035156,23.521916,,,
25993800000,0.999756,-0.014648,0.017273,-0.003235,0.015625,0.003906,0.035156,23.552108,,,
26003254000,0.999756,-0.014709,0.017273,-0.003235,0.015625,0.003906,0.035156,23.561562,,,
26023173000,0.999756,-0.014648,0.017273,-0.003235,0.015625,0.003906,-0.003906,23.581481,,,
26053257000,0.999756,-0.014648,0.017273,-0.003235,0.015625,0.003906,-0.003906,23.611565,,,
26063250000,0.999756,-0.014648,0.017273,-0.003235,0.015625,0.003906,0.035156,23.621558,,,
26083157000,0.999756,-0.014648,0.017273,-0.003235,0.015625,0.003906,-0.003906,23.641465,,,
26103347000,0.999756,-0.014648,0.017334,-0.003235,0.015625,0.003906,-0.003906,23.661655,2.93,3.77,1.67
26132380000,0.999756,-0.014648,0.017273,-0.003296,0.015625,0.003906,-0.003906,23.690688,,,
26142605000,0.999756,-0.014648,0.017334,-0.003296,-0.023438,0.003906,-0.003906,23.700913,,,
26162777000,0.999756,-0.014648,0.017334,-0.003296,0.015625,0.003906,-0.003906,23.721085,,,
26182538000,0.999756,-0.014648,0.017334,-0.003296,0.015625,-0.03125,-0.003906,23.740846,,,
26212403000,0.999756,-0.014648,0.017334,-0.003296,0.015625,0.003906,0.035156,23.770711,,,
26222217000,0.999756,-0.014648,0.017334,-0.003296,0.015625,0.003906,-0.003906,23.780525,,,
26242363000,0.999756,-0.014648,0.017334,-0.003296,0.007812,0.003906,-0.003906,23.800671,,,
26262545000,0.999756,-0.014648,0.017334,-0.003296,0.007812,0.003906,0.035156,23.820853,,,
26292926000,0.999756,-0.014648,0.017334,-0.003296,0.007812,0.003906,-0.003906,23.851234,,,
26302428000,0.999756,-0.014648,0.017334,-0.003296,0.007812,-0.03125,0.035156,23.860736,2.9,3.77,1.67
26324158000,0.999756,-0.014648,0.017334,-0.003296,-0.03125,0.003906,0.035156,23.882466,,,
26342732000,0.999756,-0.014648,0.017334,-0.003296,-0.03125,0.003906,0.035156,23.90104,,,
26362128000,0.999756,-0.014648,0.017334,-0.003296,-0.03125,0.003906,-0.003906,23.920436,,,
26382597000,0.999756,-0.014648,0.017334,-0.003296,0.007812,0.003906,-0.003906,23.940905,,,
26411829000,0.999756,-0.014648,0.017334,-0.003296,0.015625,-0.03125,-0.003906,23.970137,,,
26427903000,0.999756,-0.014648,0.017334,-0.003296,0.015625,0.003906,-0.003906,23.986211,,,
26442283000,0.999756,-0.014648,0.017334,-0.003296,0.015625,-0.03125,-0.003906,24.000591,,,
26462448000,0.999756,-0.014648,0.017334,-0.003296,-0.023438,0.003906,0.035156,24.020756,,,
26491576000,0.999756,-0.014648,0.017334,-0.003296,0.015625,0.003906,0.035156,24.049884,,,
26507895000,0.999756,-0.014648,0.017334,-0.003296,0.015625,0.003906,-0.003906,24.066203,2.9,3.75,1.69
26522080000,0.999756,-0.014648,0.017334,-0.003296,0.015625,0.003906,0.035156,24.080388,,,
26551314000,0.999756,-0.014648,0.017334,-0.003296,0.015625,0.003906,-0.003906,24.109622,,,
26571983000,0.999756,-0.014648,0.017334,-0.003296,-0.023438,0.003906,-0.003906,24.130291,,,
26587036000,0.999756,-0.014648,0.017334,-0.003296,0.015625,0.003906,-0.003906,24.145344,,,
26602793000,0.999756,-0.014648,0.017334,-0.003296,0.015625,0.003906,-0.042969,24.161101,,,
26628114000,0.999756,-0.014648,0.017334,-0.003296,-0.023438,0.003906,0.035156,24.186422,,,
26641890000,0.999756,-0.014648,0.017334,-0.003296,0.015625,0.003906,-0.003906,24.200198,,,
26671330000,0.999756,-0.014648,0.017334,-0.003296,0.015625,0.003906,-0.003906,24.229638,,,
26690830000,0.999756,-0.014648,0.017334,-0.003296,0.015625,0.003906,-0.003906,24.249138,,,
26708512000,0.999756,-0.014648,0.017334,-0.003296,0.015625,0.003906,0.035156,24.26682,2.89,3.74,1.66
26721602000,0.999756,-0.014648,0.017334,-0.003296,0.015625,-0.03125,-0.003906,24.27991,,,
26748117000,0.999756,-0.014648,0.017334,-0.003296,0.015625,0.003906,0.035156,24.306425,,,
26761796000,0.999756,-0.014648,0.017334,-0.003296,-0.023438,-0.03125,-0.003906,24.320104,,,
26781686000,0.999756,-0.014648,0.017334,-0.003296,0.015625,0.003906,0.035156,24.339994,,,
26801657000,0.999756,-0.014648,0.017334,-0.003296,0.015625,0.003906,-0.003906,24.359965,,,
26830811000,0.999756,-0.014648,0.017334,-0.003296,-0.023438,-0.03125,-0.003906,24.389119,,,
26841014000,0.999756,-0.014648,0.017334,-0.003296,0.015625,0.003906,-0.003906,24.399322,,,
26862423000,0.999756,-0.014648,0.017334,-0.003296,-0.023438,0.003906,-0.003906,24.420731,,,
26881714000,0.999756,-0.014648,0.017334,-0.003296,-0.023438,0.003906,-0.003906,24.440022,,,
26910719000,0.999756,-0.014648,0.017334,-0.003296,0.015625,0.003906,-0.003906,24.469027,2.92,3.76,1.68
26920242000,0.999756,-0.014648,0.017334,-0.003296,-0.023438,-0.03125,-0.003906,24.47855,,,
26941697000,0.999756,-0.014648,0.017334,-0.003296,0.015625,0.042969,-0.003906,24.500005,,,
26961667000,0.999756,-0.014648,0.017334,-0.003296,0.015625,0.003906,-0.003906,24.519975,,,
26990040000,0.999756,-0.014648,0.017334,-0.003296,0.015625,-0.03125,-0.003906,24.548348,,,
27000233000,0.999756,-0.014648,0.017334,-0.003296,0.015625,0.003906,-0.003906,24.558541,,,
27021729000,0.999756,-0.014648,0.017334,-0.003296,0.015625,-0.03125,0.035156,24.580037,,,
27041681000,0.999756,-0.014648,0.017334,-0.003296,-0.023438,0.003906,-0.003906,24.599989,,,
27070198000,0.999756,-0.014648,0.017334,-0.003296,-0.023438,0.003906,-0.003906,24.628506,,,
27080343000,0.999756,-0.014648,0.017334,-0.003296,0.015625,0.003906,-0.003906,24.638651,,,
27117454000,0.999756,-0.014648,0.017334,-0.003296,0.015625,-0.03125,-0.003906,24.675762,2.9,3.76,1.66
27129989000,0.999756,-0.014648,0.017334,-0.003296,0.015625,-0.03125,-0.003906,24.688297,,,
27149860000,0.999756,-0.014648,0.017334,-0.003296,-0.023438,0.003906,-0.042969,24.708168,,,
27160303000,0.999756,-0.014648,0.017334,-0.003296,0.015625,0.003906,0.035156,24.718611,,,
27189548000,0.999756,-0.014648,0.017334,-0.003296,0.007812,0.003906,0.035156,24.747856,,,
27210426000,0.999756,-0.014648,0.017334,-0.003296,-0.03125,0.003906,-0.003906,24.768734,,,
27229480000,0.999756,-0.014648,0.017334,-0.003296,0.007812,-0.03125,-0.003906,24.787788,,,
27240335000,0.999756,-0.014648,0.017334,-0.003296,0.007812,0.003906,-0.003906,24.798643,,,
27269095000,0.999756,-0.014648,0.017334,-0.003296,0.007812,0.003906,0.035156,24.827403,,,
27289118000,0.999756,-0.014648,0.017334,-0.003296,0.007812,0.003906,-0.003906,24.847426,,,
27309979000,0.999756,-0.014648,0.017334,-0.003296,0.007812,0.003906,-0.003906,24.868287,2.91,3.75,1.68
27329510000,0.999756,-0.014648,0.017334,-0.003296,-0.03125,-0.03125,-0.003906,24.887818,,,
27349936000,0.999756,-0.014648,0.017334,-0.003296,-0.023438,0.003906,0.035156,24.908244,,,
27360333000,0.999756,-0.014648,0.017334,-0.003296,0.015625,0.003906,-0.003906,24.918641,,,
27389446000,0.999756,-0.014648,0.017334,-0.003296,0.015625,0.003906,-0.003906,24.947754,,,
27413354000,0.999756,-0.014648,0.017334,-0.003296,-0.023438,0.003906,-0.003906,24.971662,,,
27429251000,0.999756,-0.014648,0.017334,-0.003296,0.015625,0.003906,-0.042969,24.987559,,,
27448627000,0.999756,-0.014648,0.017334,-0.003296,0.015625,0.003906,-0.003906,25.006935,,,
27469038000,0.999756,-0.014648,0.017334,-0.003296,0.015625,0.003906,0.035156,25.027346,,,
27494155000,0.999756,-0.014648,0.017334,-0.003296,-0.023438,-0.03125,-0.003906,25.052463,,,
27509467000,0.999756,-0.014648,0.017334,-0.003296,-0.023438,0.003906,-0.003906,25.067775,2.91,3.79,1.68
27528527000,0.999756,-0.014648,0.017334,-0.003296,0.015625,0.003906,-0.003906,25.086835,,,
27548479000,0.999756,-0.014648,0.017334,-0.003296,-0.023438,0.003906,-0.003906,25.106787,,,
27568547000,0.999756,-0.014648,0.017334,-0.003296,-0.023438,0.003906,-0.042969,25.126855,,,
27588471000,0.999756,-0.014648,0.017334,-0.003296,0.015625,0.003906,-0.003906,25.146779,,,
27612600000,0.999756,-0.014648,0.017273,-0.003235,0.972656,-0.03125,-0.003906,25.170908,,,
27628255000,0.999756,-0.014648,0.017517,-0.003113,1.570312,-0.03125,0.1875,25.186563,,,
27648078000,0.999756,-0.015015,0.017639,-0.00293,0.949219,-0.023438,-0.082031,25.206386,,,
27668198000,0.999695,-0.015015,0.017883,-0.00293,1.5625,-0.140625,-0.003906,25.226506,,,
27691474000,0.999756,-0.014893,0.0177,-0.003052,1.484375,-0.09375,-0.386719,25.249782,,,
27708123000,0.999756,-0.014648,0.0177,-0.003113,0.128906,0.167969,-0.3125,25.266431,2.93,3.75,1.63
27728450000,0.999756,-0.014709,0.017639,-0.003174,-0.828125,0.128906,0.070312,25.286758,,,
27748010000,0.999695,-0.015137,0.017944,-0.003174,-0.914062,-0.0625,0.300781,25.306318,,,
27768807000,0.999695,-0.015198,0.018127,-0.003235,-0.714844,-0.054688,0.378906,25.327115,,,
27793784000,0.999695,-0.015015,0.017883,-0.003235,-0.796875,-0.054688,0.003906,25.352092,,,
27807969000,0.999695,-0.015076,0.017944,-0.003174,-0.796875,-0.054688,-0.042969,25.366277,,,
27829772000,0.999695,-0.015015,0.017944,-0.003174,-0.300781,-0.09375,-0.425781,25.38808,,,
27848596000,0.999695,-0.015137,0.017883,-0.003235,0.066406,-0.015625,0.070312,25.406904,,,
27867516000,0.999695,-0.014954,0.017883,-0.003235,0.144531,-0.09375,-0.042969,25.425824,,,
27887735000,0.999695,-0.015076,0.017944,-0.003235,0.375,0.097656,-0.195312,25.446043,,,
27907394000,0.999695,-0.015076,0.017822,-0.003235,0.296875,0.058594,-0.3125,25.465702,2.97,3.76,1.68
27934967000,0.999756,-0.014832,0.0177,-0.003235,0.136719,-0.015625,0.078125,25.493275,,,
27947211000,0.999695,-0.015137,0.017822,-0.003296,0.402344,0.058594,0.109375,25.505519,,,
27967231000,0.999695,-0.015137,0.017883,-0.003296,-0.132812,-0.054688,0.15625,25.525539,,,
27988206000,0.999695,-0.015015,0.0177,-0.003357,-0.324219,0.019531,-0.113281,25.546514,,,
28013267000,0.999695,-0.015076,0.017761,-0.003418,-0.292969,0.097656,-0.035156,25.571575,,,
28027656000,0.999695,-0.015076,0.017761,-0.003418,-0.984375,0.019531,0.15625,25.585964,,,
28050435000,0.999695,-0.015076,0.017761,-0.003418,-0.792969,-0.015625,0.042969,25.608743,,,
28067608000,0.999695,-0.015015,0.0177,-0.003418,-0.601562,0.019531,0.003906,25.625916,,,
28087404000,0.999695,-0.015259,0.0177,-0.003418,-0.867188,0.019531,0.042969,25.645712,,,
28113306000,0.999695,-0.01532,0.017639,-0.003418,-0.410156,-0.007812,0.003906,25.671614,2.96,3.78,1.69
28127243000,0.999695,-0.015198,0.017578,-0.003418,0.242188,-0.007812,0.003906,25.685551,,,
28147485000,0.999756,-0.015076,0.017517,-0.003418,0.433594,0.027344,-0.074219,25.705793,,,
28170543000,0.999756,-0.015137,0.017517,-0.003418,0.242188,0.019531,-0.035156,25.728851,,,
28186700000,0.999695,-0.015198,0.017639,-0.003418,0.394531,0.027344,-0.035156,25.745008,,,
28206783000,0.999695,-0.015137,0.017517,-0.003418,1.199219,0.066406,-0.378906,25.765091,,,
28226543000,0.999695,-0.015381,0.017517,-0.003479,-0.214844,-0.007812,0.003906,25.784851,,,
28257007000,0.999695,-0.015381,0.017639,-0.00354,-1.367188,-0.007812,0.078125,25.815315,,,
28272099000,0.999695,-0.015381,0.017639,-0.00354,-1.136719,0.027344,-0.035156,25.830407,,,
28287004000,0.999695,-0.01532,0.017578,-0.00354,-0.523438,0.027344,0.003906,25.845312,,,
28306187000,0.999695,-0.015259,0.017517,-0.00354,-0.332031,0.027344,0.042969,25.864495,,,
28330560000,0.999756,-0.015137,0.017395,-0.00354,-0.675781,0.066406,-0.035156,25.888868,2.94,3.76,1.69
28346093000,0.999756,-0.015137,0.017395,-0.00354,-0.03125,0.027344,0.003906,25.904401,,,
28366660000,0.999756,-0.015137,0.017456,-0.00354,-0.222656,-0.007812,0.003906,25.924968,,,
28391001000,0.999695,-0.015198,0.017517,-0.00354,-0.214844,0.027344,-0.035156,25.949309,,,
28406787000,0.999695,-0.015137,0.017517,-0.00354,-0.410156,-0.007812,0.042969,25.965095,,,
28426343000,0.999695,-0.015137,0.017517,-0.003479,0.011719,-0.007812,0.042969,25.984651,,,
28455965000,0.999695,-0.015198,0.017517,-0.003479,0.519531,-0.007812,-0.003906,26.014273,,,
28473012000,0.999695,-0.015259,0.017456,-0.003479,0.25,-0.046875,-0.003906,26.03132,,,
28486409000,0.999695,-0.015259,0.017517,-0.003479,-0.132812,-0.007812,-0.042969,26.044717,,,
28506393000,0.999695,-0.01532,0.017578,-0.00354,0.097656,-0.007812,-0.003906,26.064701,,,
28536155000,0.999695,-0.015503,0.017578,-0.003479,0.019531,-0.085938,0.003906,26.094463,2.96,3.7,1.69
28553045000,0.999695,-0.01532,0.017517,-0.00354,-0.132812,0.105469,-0.035156,26.111353,,,
28565354000,0.999695,-0.015381,0.017517,-0.003479,-0.746094,0.066406,0.15625,26.123662,,,
28585393000,0.999695,-0.015442,0.017456,-0.003479,-0.707031,-0.007812,0.042969,26.143701,,,
28606507000,0.999695,-0.015442,0.017456,-0.003479,-0.402344,-0.007812,-0.035156,26.164815,,,
28629984000,0.999695,-0.015442,0.017456,-0.003479,-0.09375,-0.046875,0.003906,26.188292,,,
28647508000,0.999695,-0.015442,0.017456,-0.00354,-0.09375,-0.007812,0.003906,26.205816,,,
28665748000,0.999695,-0.015442,0.017456,-0.00354,-0.054688,-0.007812,0.042969,26.224056,,,
